"Time (s)","Linear Acceleration x (m/s^2)","Linear Acceleration y (m/s^2)","Linear Acceleration z (m/s^2)","Absolute acceleration (m/s^2)"
2.756299000E-2,-5.429469943E-1,-6.636639833E-1,-1.087627053E0,1.384981562E0
3.257399000E-2,-3.449819982E-1,-4.717249870E-1,-7.592620254E-1,9.581314449E-1
3.758483600E-2,-7.144100219E-2,-2.311629951E-1,-5.086889863E-1,5.632979956E-1
4.259586500E-2,2.208749950E-1,5.371800065E-2,-2.963339984E-1,3.734772090E-1
4.760671300E-2,5.165969729E-1,2.946229875E-1,-1.409980059E-1,6.111919297E-1
5.261771600E-2,7.373750210E-1,4.199039936E-1,-1.683600061E-2,8.487194686E-1
5.762856400E-2,9.272320271E-1,5.418850183E-1,2.547610104E-1,1.103767085E0
6.263933300E-2,1.067793965E0,5.995669961E-1,6.511960030E-1,1.386982613E0
6.765031700E-2,1.132724047E0,5.097169876E-1,9.686970115E-1,1.575198106E0
7.266116500E-2,1.126641035E0,3.297590017E-1,1.222605944E0,1.694941390E0
7.767224000E-2,1.010162950E0,1.240200028E-1,1.479717016E0,1.795932235E0
8.268299700E-2,8.242359757E-1,-7.889200002E-2,1.706621051E0,1.896877514E0
8.769407200E-2,6.292099953E-1,-2.121540010E-1,1.834125042E0,1.950622774E0
9.270507200E-2,5.042089820E-1,-2.615509927E-1,1.778578997E0,1.867077627E0
9.771584300E-2,3.865579963E-1,-2.702549994E-1,1.496860027E0,1.569412244E0
1.027267080E-1,2.730140090E-1,-2.755829990E-1,1.029386044E0,1.100053756E0
1.077377060E-1,7.959570289E-1,-7.564330101E-1,-5.656160116E-1,1.235176086E0
1.127485540E-1,9.518870115E-1,-6.669409871E-1,-1.422037005E0,1.836596964E0
1.177595520E-1,9.242600203E-2,-3.301810026E-1,-8.049640059E-1,8.749452047E-1
1.227703710E-1,-1.278169990E0,-4.230360091E-1,-7.774300128E-2,1.348600001E0
1.277813690E-1,-2.402937889E0,-6.221410036E-1,1.568579972E-1,2.487121702E0
1.327922180E-1,-2.746001005E0,-6.815639734E-1,-2.593299933E-2,2.829438724E0
1.378032160E-1,-2.167439938E0,-5.296869874E-1,-1.914809942E-1,2.239426078E0
1.428140640E-1,-1.185901046E0,-4.000369906E-1,-1.033020020E-1,1.255811366E0
1.478250620E-1,-3.726339936E-1,-3.714370131E-1,-9.069999796E-4,5.261391171E-1
1.528359100E-1,3.837800026E-2,-3.931899965E-1,-7.451999933E-2,4.020254650E-1
1.578468940E-1,1.200610027E-1,-3.689799905E-1,-3.013359904E-1,4.912883643E-1
1.628577420E-1,1.336439997E-1,-2.174209952E-1,-4.886690080E-1,5.512984738E-1
1.678687440E-1,1.629669964E-1,2.075600065E-2,-5.317469835E-1,5.565464113E-1
1.728795920E-1,1.446990073E-1,1.986140013E-1,-4.463930130E-1,5.095606404E-1
1.778905760E-1,8.108200133E-2,3.092660010E-1,-3.194569945E-1,4.519651775E-1
1.829014240E-1,6.272699684E-2,3.609650135E-1,-2.161020041E-1,4.253592520E-1
1.879124330E-1,1.518419981E-1,4.110839963E-1,-1.344150007E-1,4.583813225E-1
1.929232820E-1,3.023949862E-1,3.970429897E-1,-5.390800163E-2,5.019879839E-1
1.979340510E-1,4.629220068E-1,3.048320115E-1,2.439399995E-2,5.548102440E-1
2.029451210E-1,6.903579831E-1,1.111570001E-1,1.085050032E-1,7.076180885E-1
2.079561210E-1,7.846980095E-1,-4.467900097E-2,1.637000032E-2,7.861393999E-1
2.129669780E-1,7.517499924E-1,-2.009499967E-1,3.218299896E-2,7.788097955E-1
2.179779760E-1,6.418750286E-1,-3.102529943E-1,8.957099915E-2,7.185286610E-1
2.229888100E-1,4.228059947E-1,-3.952359855E-1,8.437799662E-2,5.848897672E-1
2.279995790E-1,1.560920030E-1,-4.870460033E-1,4.554200172E-2,5.134711255E-1
2.330105620E-1,1.527619958E-1,-7.035560012E-1,-3.079819977E-1,7.830582259E-1
2.380214110E-1,8.697000146E-2,-8.075649738E-1,-6.641669869E-1,1.049210539E0
2.430324090E-1,-2.884609997E-1,-7.585650086E-1,-5.156520009E-1,9.615235862E-1
2.480434860E-1,-6.073250175E-1,-6.675320268E-1,-2.572129965E-1,9.384035428E-1
2.530542570E-1,-6.519280076E-1,-6.015120149E-1,-1.521469951E-1,8.999864106E-1
2.580651180E-1,-7.816159725E-1,-4.667330086E-1,-3.644400090E-2,9.110935161E-1
2.630761160E-1,-8.523420095E-1,-3.960370123E-1,9.379100055E-2,9.445257901E-1
2.680869640E-1,-8.263270259E-1,-3.236849904E-1,1.812019944E-1,9.057717646E-1
2.730979620E-1,-6.945819855E-1,-2.857159972E-1,2.229100019E-1,7.834325973E-1
2.781088100E-1,-5.115169883E-1,-2.703660131E-1,2.402099967E-1,6.264569042E-1
2.831198700E-1,-3.160670102E-1,-2.327509969E-1,2.810989916E-1,4.827919061E-1
2.881306410E-1,-1.110550016E-1,-1.572880000E-1,3.197059929E-1,3.732085881E-1
2.931416440E-1,8.710499853E-2,-4.437600076E-2,4.161030054E-1,4.274321248E-1
2.981524930E-1,2.841809988E-1,1.048180014E-1,5.135679841E-1,5.962363020E-1
3.031634910E-1,4.138740003E-1,2.377119958E-1,5.480089784E-1,7.267135071E-1
3.081742620E-1,4.600459933E-1,3.379189968E-1,5.173659921E-1,7.703889499E-1
3.131853370E-1,4.341680110E-1,3.919520080E-1,4.478650093E-1,7.366894223E-1
3.181961850E-1,3.633109927E-1,3.989489973E-1,3.939599991E-1,6.681015347E-1
3.232069490E-1,2.483939976E-1,3.623420000E-1,3.194169998E-1,5.431560759E-1
3.282179470E-1,1.138169989E-1,2.692120075E-1,2.451869994E-1,3.815050182E-1
3.332288000E-1,-2.583299950E-2,1.768240035E-1,1.474249959E-1,2.316639840E-1
3.382397980E-1,-1.356659979E-1,7.109399885E-2,3.780699894E-2,1.577624443E-1
3.432508790E-1,-2.285349965E-1,-7.369999774E-3,-2.873999998E-2,2.304529217E-1
3.482617280E-1,-2.522769868E-1,-4.307200015E-2,-7.603699714E-2,2.669840823E-1
3.532727260E-1,-2.256290019E-1,-4.128900170E-2,-7.305800170E-2,2.407295157E-1
3.582834970E-1,-1.827030033E-1,-2.033700049E-2,5.393800139E-2,1.915810246E-1
3.632945720E-1,-1.999029964E-1,-5.116900057E-2,3.470270038E-1,4.037415212E-1
3.683053530E-1,-1.519429982E-1,1.996400021E-2,4.994409978E-1,5.224237230E-1
3.733161990E-1,-5.521500111E-2,9.825800359E-2,5.238209963E-1,5.358094510E-1
3.783271970E-1,-1.883899979E-2,1.459330022E-1,5.181859732E-1,5.386724903E-1
3.833380450E-1,2.025000006E-2,1.519040018E-1,5.130429864E-1,5.354418681E-1
3.883490430E-1,6.385300308E-2,1.452600062E-1,5.105419755E-1,5.346314470E-1
3.933598860E-1,8.448600024E-2,1.446409971E-1,4.488500059E-1,4.790879147E-1
3.983708850E-1,1.157369986E-1,1.425590068E-1,3.472500145E-1,3.928112726E-1
4.033817380E-1,1.270200014E-1,1.342539936E-1,2.129780054E-1,2.819890891E-1
4.083927360E-1,1.487540007E-1,1.272100061E-1,1.008450016E-1,2.201814087E-1
4.134035840E-1,1.384609938E-1,1.121440008E-1,-1.790600084E-2,1.790763764E-1
4.184145920E-1,1.480119973E-1,1.032370031E-1,-1.480910033E-1,2.334445875E-1
4.234254400E-1,1.113770008E-1,9.381999820E-2,-2.539019883E-1,2.926999283E-1
4.284364230E-1,8.511999995E-2,7.972799987E-2,-3.141820133E-1,3.351302819E-1
4.334472710E-1,5.663700029E-2,5.727000162E-2,-3.007709980E-1,3.113692280E-1
4.384582690E-1,4.211200029E-2,5.006000027E-2,-2.710439861E-1,2.788265887E-1
4.434691220E-1,4.811700061E-2,4.418199882E-2,-2.013420016E-1,2.116740333E-1
4.484801200E-1,2.781799994E-2,3.049300052E-2,-8.931700140E-2,9.839304315E-2
4.534909500E-1,4.973899946E-2,5.979499966E-2,-2.762399986E-2,8.253784235E-2
4.585019480E-1,1.058230028E-1,1.002909988E-1,7.845000364E-3,1.460080011E-1
4.635127760E-1,1.833049953E-1,1.792750061E-1,1.998399943E-2,2.571762223E-1
4.685237740E-1,1.982090026E-1,2.001850009E-1,1.799800061E-2,2.822849116E-1
4.735346170E-1,1.897410005E-1,1.896920055E-1,-1.967399940E-2,2.690200188E-1
4.785456150E-1,1.448809952E-1,1.597770005E-1,-1.144030020E-1,2.441459390E-1
4.835564630E-1,8.789700270E-2,1.245210022E-1,-2.444899976E-1,2.881088718E-1
4.885672280E-1,2.804699913E-2,1.051359996E-1,-3.691590130E-1,3.848617797E-1
4.935783030E-1,-3.971900046E-2,5.027300119E-2,-4.746409953E-1,4.789457673E-1
4.985893030E-1,-1.015409976E-1,1.453099959E-2,-5.847449899E-1,5.936736707E-1
5.036001800E-1,-1.463569999E-1,-1.157199964E-2,-6.804800034E-1,6.961374272E-1
5.086111780E-1,-1.589120030E-1,-3.281300142E-2,-7.596600056E-1,7.767966541E-1
5.136220360E-1,-1.710869968E-1,-4.659200087E-2,-8.129060268E-1,8.320203023E-1
5.186328050E-1,-2.021629959E-1,-8.641300350E-2,-7.383739948E-1,7.704110853E-1
5.236438030E-1,-2.912000120E-1,-1.237000003E-1,-4.865779877E-1,5.803940688E-1
5.286546370E-1,-2.263720036E-1,-1.008879989E-1,-2.412499934E-1,3.458673614E-1
5.336656350E-1,-1.409109980E-1,-3.426599875E-2,-3.734099865E-2,1.497478487E-1
5.386764830E-1,-9.038800001E-2,-1.191500016E-2,1.228170022E-1,1.529574248E-1
5.436874850E-1,-5.049699917E-2,-1.430900022E-2,2.869760096E-1,2.917360528E-1
5.486985620E-1,1.851500012E-2,-1.083199959E-2,4.528479874E-1,4.533557512E-1
5.537093430E-1,8.837799728E-2,9.456999600E-3,5.993999839E-1,6.059541616E-1
5.587201900E-1,1.477440000E-1,4.358800128E-2,7.365339994E-1,7.524696244E-1
5.637311740E-1,1.878339946E-1,6.955700368E-2,8.238649964E-1,8.478639741E-1
5.687420220E-1,2.047110051E-1,8.429300040E-2,8.187050223E-1,8.481095561E-1
5.737530040E-1,2.038889974E-1,7.377099991E-2,7.808099985E-1,8.103561794E-1
5.787638520E-1,2.000599951E-1,6.623800099E-2,6.912599802E-1,7.226699348E-1
5.837748360E-1,1.866180003E-1,3.294000030E-2,5.166239738E-1,5.502832471E-1
5.887856840E-1,1.425759941E-1,-1.891000010E-2,2.784759998E-1,3.134236505E-1
5.937966820E-1,9.378699958E-2,-8.875899762E-2,3.873600066E-2,1.348133476E-1
5.988075200E-1,4.662799835E-2,-1.270170063E-1,-2.095890045E-1,2.494695190E-1
6.038185180E-1,3.287699819E-2,-1.297899932E-1,-4.471740127E-1,4.667878929E-1
6.088293660E-1,-1.647399925E-2,-1.317660064E-1,-6.242250204E-1,6.381931911E-1
6.138403690E-1,-1.379459947E-1,-1.365139931E-1,-7.243109941E-1,7.498610431E-1
6.188512180E-1,-2.712059915E-1,-1.567279994E-1,-7.528619766E-1,8.154247430E-1
6.238622160E-1,-3.507899940E-1,-1.495539993E-1,-7.458530068E-1,8.376853385E-1
6.288730880E-1,-4.198180139E-1,-1.384380013E-1,-7.058879733E-1,8.328805892E-1
6.338840860E-1,-5.617480278E-1,-1.626680046E-1,-6.428300142E-1,8.690524459E-1
6.388949430E-1,-7.302100062E-1,-2.055339962E-1,-6.307340264E-1,9.865476618E-1
6.439059410E-1,-8.047519922E-1,-2.482700050E-1,-6.315879822E-1,1.052695181E0
6.489167940E-1,-7.990599871E-1,-2.627219856E-1,-5.738340020E-1,1.018236302E0
6.539277920E-1,-7.188249826E-1,-2.280700058E-1,-4.479840100E-1,8.771630159E-1
6.589385820E-1,-5.549240112E-1,-1.401199996E-1,-2.158260047E-1,6.116822189E-1
6.639496570E-1,-2.926200032E-1,1.598500088E-2,2.991800010E-2,2.945794855E-1
6.689604290E-1,-7.200000109E-4,2.034509927E-1,2.777990103E-1,3.443328549E-1
6.739712750E-1,3.287630081E-1,3.908430040E-1,4.850749969E-1,7.043728572E-1
6.789822730E-1,6.711949706E-1,5.425500274E-1,6.184329987E-1,1.061754489E0
6.839931070E-1,9.533389807E-1,6.094470024E-1,6.395609975E-1,1.299738101E0
6.890041050E-1,1.054332972E0,5.631930232E-1,6.173089743E-1,1.345315861E0
6.940149430E-1,1.044744968E0,4.012530148E-1,5.294770002E-1,1.238079935E0
6.990259410E-1,9.182389975E-1,1.915269941E-1,4.021939933E-1,1.020590738E0
7.040367890E-1,7.240390182E-1,-2.296300046E-2,2.402810007E-1,7.632134423E-1
7.090477870E-1,4.819439948E-1,-2.002039999E-1,6.328299642E-2,5.256961036E-1
7.140586450E-1,2.065570056E-1,-3.363319933E-1,-8.777599782E-2,4.043385118E-1
7.190697200E-1,-1.132799964E-2,-3.852010071E-1,-1.406150013E-1,4.102203287E-1
7.240804920E-1,-2.040379941E-1,-3.651660085E-1,-1.473219991E-1,4.434878670E-1
7.290914800E-1,-3.652909994E-1,-3.440009952E-1,-1.890189946E-1,5.361924834E-1
7.341023280E-1,-4.685370028E-1,-2.915599942E-1,-2.104350030E-1,5.906073516E-1
7.391133020E-1,-4.830749929E-1,-2.162259966E-1,-2.352270037E-1,5.791777565E-1
7.441241500E-1,-4.511620104E-1,-1.280629933E-1,-2.537589967E-1,5.332362688E-1
7.491351480E-1,-3.371309936E-1,-4.876099899E-2,-2.781310081E-1,4.397633450E-1
7.541459960E-1,-1.946209967E-1,3.621400148E-2,-2.773880064E-1,3.407827642E-1
7.591569940E-1,-1.277699973E-2,1.501030028E-1,-2.609040141E-1,3.012724145E-1
7.641677850E-1,1.541280001E-1,2.459080070E-1,-2.456980050E-1,3.802547804E-1
7.691788600E-1,3.206470013E-1,3.289090097E-1,-2.295249999E-1,5.134952401E-1
7.741897430E-1,4.610779881E-1,3.883459866E-1,-1.864559948E-1,6.310082048E-1
7.792005120E-1,6.015840173E-1,4.393889904E-1,-1.167789996E-1,7.540579218E-1
7.842115920E-1,7.282540202E-1,5.059040189E-1,-1.799900085E-2,8.869141775E-1
7.892223630E-1,8.024010062E-1,5.296980143E-1,1.069919989E-1,9.674061448E-1
7.942333610E-1,8.144459724E-1,4.764440060E-1,1.883099973E-1,9.621755494E-1
7.992442090E-1,7.761200070E-1,3.759079874E-1,2.423660010E-1,8.957736091E-1
8.042552070E-1,6.823570132E-1,2.687900066E-1,2.907379866E-1,7.889155455E-1
8.092660640E-1,5.582249761E-1,1.297730058E-1,3.425880075E-1,6.676995580E-1
8.142770620E-1,3.790650070E-1,-2.669800073E-2,3.643980026E-1,5.264873855E-1
8.192879110E-1,1.999029964E-1,-1.911509931E-1,3.418110013E-1,4.396983861E-1
8.242989000E-1,3.645600006E-2,-3.240930140E-1,2.967939973E-1,4.409671172E-1
8.293097480E-1,-1.097500026E-1,-4.263040125E-1,2.655270100E-1,5.140863422E-1
8.343207410E-1,-2.394360006E-1,-4.890600145E-1,2.507230043E-1,5.994758720E-1
8.393315890E-1,-3.229849935E-1,-4.948140085E-1,2.386150062E-1,6.372576639E-1
8.443425870E-1,-3.757880032E-1,-4.688119888E-1,2.033659965E-1,6.343177695E-1
8.493534440E-1,-3.802289963E-1,-4.140790105E-1,1.930229962E-1,5.943848867E-1
8.543644420E-1,-3.585129976E-1,-3.363589942E-1,1.600690037E-1,5.170019617E-1
8.593752950E-1,-3.066830039E-1,-2.226130068E-1,9.301000088E-2,3.902074781E-1
8.643862930E-1,-2.187249959E-1,-9.481000155E-2,2.307000011E-2,2.395032048E-1
8.693971310E-1,-1.076629981E-1,4.418100044E-2,-6.157400087E-2,1.316610783E-1
8.744081290E-1,1.631600037E-2,1.897840053E-1,-1.155499965E-1,2.227913423E-1
8.794189780E-1,1.317089945E-1,3.118090034E-1,-1.631239951E-1,3.757413360E-1
8.844300490E-1,2.643870115E-1,4.249520004E-1,-2.235540003E-1,5.481433075E-1
8.894408200E-1,3.604609966E-1,4.992929995E-1,-3.020139933E-1,6.858848894E-1
8.944518220E-1,3.909600079E-1,5.079650283E-1,-3.943470120E-1,7.525873794E-1
8.994626700E-1,3.600240052E-1,4.627799988E-1,-4.535219967E-1,7.412589380E-1
9.044736680E-1,2.485760003E-1,3.302800059E-1,-5.235400200E-1,6.670600144E-1
9.094845020E-1,4.496699944E-2,1.413799971E-1,-5.693489909E-1,5.883609505E-1
9.144955000E-1,-1.973280013E-1,-6.527499855E-2,-6.437489986E-1,6.764702054E-1
9.195063480E-1,-4.198789895E-1,-2.958450019E-1,-6.897979975E-1,8.600255277E-1
9.245173460E-1,-6.313070059E-1,-4.932520092E-1,-6.834660172E-1,1.053077337E0
9.295281940E-1,-8.144279718E-1,-6.371949911E-1,-6.266970038E-1,1.209156529E0
9.345391920E-1,-8.943470120E-1,-7.198010087E-1,-5.261170268E-1,1.262841715E0
9.395500650E-1,-9.579780102E-1,-7.452489734E-1,-4.025619924E-1,1.278739246E0
9.445608340E-1,-9.542289972E-1,-7.225880027E-1,-2.840569913E-1,1.230192983E0
9.495718320E-1,-8.753659725E-1,-6.509979963E-1,-1.461330056E-1,1.100644735E0
9.545826800E-1,-7.412980199E-1,-5.295659900E-1,4.579999950E-3,9.110345045E-1
9.595936780E-1,-5.430960059E-1,-3.572829962E-1,1.757940054E-1,6.734299840E-1
9.646045260E-1,-3.064599931E-1,-1.446669996E-1,3.368239999E-1,4.778040132E-1
9.696156010E-1,-2.642099932E-2,8.883500099E-2,4.974150062E-1,5.059757059E-1
9.746263720E-1,2.555679977E-1,3.169170022E-1,6.074339747E-1,7.312505873E-1
9.796373510E-1,5.124040246E-1,4.880540073E-1,6.450160146E-1,9.574968708E-1
9.846482000E-1,7.453399897E-1,6.178500056E-1,6.552180052E-1,1.169008539E0
9.896591740E-1,8.880069852E-1,6.839540005E-1,6.207630038E-1,1.281286926E0
9.946700220E-1,9.151960015E-1,6.573140025E-1,5.241299868E-1,1.242721876E0
9.996810050E-1,8.086649776E-1,5.537660122E-1,3.551479876E-1,1.042461479E0
1.004691853E0,5.992460251E-1,3.821550012E-1,1.489789933E-1,7.261769646E-1
1.009702837E0,3.375639915E-1,1.745650023E-1,-7.330600172E-2,3.870350867E-1
1.014713685E0,5.200999975E-2,-4.183800146E-2,-2.714149952E-1,2.795023400E-1
1.019724683E0,-2.109760046E-1,-2.570529878E-1,-4.455470145E-1,5.559669551E-1
1.024735516E0,-4.434710145E-1,-4.050759971E-1,-5.713419914E-1,8.289660882E-1
1.029746514E0,-6.143029928E-1,-4.897870123E-1,-6.745049953E-1,1.035478862E0
1.034757367E0,-7.074490190E-1,-5.242890120E-1,-7.354540229E-1,1.147281876E0
1.039768365E0,-7.004839778E-1,-5.004349947E-1,-7.489060163E-1,1.141040406E0
1.044779199E0,-5.904870033E-1,-3.753840029E-1,-6.900039911E-1,9.826970838E-1
1.049789968E0,-4.158250093E-1,-2.281879932E-1,-5.564380288E-1,7.311658352E-1
1.054800966E0,-1.641139984E-1,-2.234400064E-2,-3.978160024E-1,4.309178931E-1
1.059812043E0,9.830699861E-2,1.761499941E-1,-1.618710011E-1,2.586412717E-1
1.064822838E0,3.726170063E-1,3.462089896E-1,7.711700350E-2,5.144425431E-1
1.069833684E0,5.808420181E-1,4.531059861E-1,2.949070036E-1,7.935065378E-1
1.074844692E0,7.005370259E-1,5.332059860E-1,5.225440264E-1,1.023773905E0
1.079855769E0,7.767249942E-1,5.347899795E-1,6.974949837E-1,1.172945562E0
1.084866622E0,7.647690177E-1,4.753310084E-1,8.218960166E-1,1.219148998E0
1.089877620E0,7.090579867E-1,3.694570065E-1,8.836529851E-1,1.191681294E0
1.094888392E0,6.316509843E-1,2.617680132E-1,8.711119890E-1,1.107403068E0
1.099899243E0,5.426120162E-1,1.706700027E-1,8.347820044E-1,1.010156941E0
1.104910241E0,4.723420143E-1,1.167180017E-1,7.726269960E-1,9.130621805E-1
1.109921089E0,4.246140122E-1,1.129370034E-1,7.019029856E-1,8.280818965E-1
1.114932096E0,3.590730131E-1,1.280090064E-1,6.418169737E-1,7.464909659E-1
1.119943173E0,2.806229889E-1,1.448220015E-1,5.326830149E-1,6.192526692E-1
1.124953944E0,2.105730027E-1,1.444309950E-1,3.911670148E-1,4.671326742E-1
1.129964766E0,1.299570054E-1,1.391910017E-1,2.290840000E-1,2.978966889E-1
1.134975764E0,4.793100059E-2,1.291240007E-1,5.122299865E-2,1.469495967E-1
1.139986613E0,-1.718400046E-2,7.046200335E-2,-1.215419993E-1,1.415367139E-1
1.144997611E0,-7.319500297E-2,2.000000095E-3,-2.965869904E-1,3.054919824E-1
1.150008445E0,-1.184879988E-1,-6.108999997E-2,-4.120149910E-1,4.330447400E-1
1.155019443E0,-1.465169936E-1,-1.111000031E-1,-4.800080061E-1,5.140215229E-1
1.160030281E0,-1.511690021E-1,-1.293009967E-1,-5.123639703E-1,5.496250112E-1
1.165041279E0,-1.428589970E-1,-1.421429962E-1,-5.521129966E-1,5.877432138E-1
1.170052356E0,-1.246630028E-1,-1.398939937E-1,-5.466880202E-1,5.779091496E-1
1.175063137E0,-1.110370010E-1,-1.082910001E-1,-4.840939939E-1,5.083337007E-1
1.180073983E0,-6.481999904E-2,-4.994000122E-2,-3.666509986E-1,3.756708543E-1
1.185084980E0,3.887000028E-3,1.357099973E-2,-2.374189943E-1,2.378383057E-1
1.190095751E0,9.963999689E-2,1.103829965E-1,-7.222999632E-2,1.653169902E-1
1.195106606E0,1.849869937E-1,2.044080049E-1,7.635699958E-2,2.860650480E-1
1.200117606E0,2.587429881E-1,2.699509859E-1,2.176740021E-1,4.326701282E-1
1.205128701E0,2.917349935E-1,3.052200079E-1,3.538759947E-1,5.509054177E-1
1.210139472E0,2.973429859E-1,2.842490077E-1,3.986729980E-1,5.728442274E-1
1.215150314E0,2.720220089E-1,2.170879990E-1,3.853609860E-1,5.192554883E-1
1.220161312E0,1.983010024E-1,1.206109971E-1,3.067080081E-1,3.846298251E-1
1.225172164E0,1.076039970E-1,1.617800072E-2,1.938910037E-1,2.223377368E-1
1.230183162E0,-2.319299988E-2,-6.587000191E-2,5.441199988E-2,8.852930660E-2
1.235193997E0,-1.470859945E-1,-1.609580070E-1,-7.122900337E-2,2.293803407E-1
1.240204995E0,-2.718800008E-1,-2.192460001E-1,-1.517419964E-1,3.808059570E-1
1.245215844E0,-3.701570034E-1,-2.534599900E-1,-2.274779975E-1,5.029954404E-1
1.250226842E0,-4.268260002E-1,-2.661370039E-1,-2.672689855E-1,5.695981477E-1
1.255237690E0,-4.500269890E-1,-2.790260017E-1,-3.212839961E-1,6.193570913E-1
1.260248688E0,-4.316209853E-1,-2.661629915E-1,-3.415409923E-1,6.113834005E-1
1.265259536E0,-4.028770030E-1,-2.467010021E-1,-3.400090039E-1,5.820458630E-1
1.270270534E0,-3.709619939E-1,-2.230120003E-1,-3.310680091E-1,5.449341060E-1
1.275281382E0,-3.337169886E-1,-1.928610057E-1,-3.146609962E-1,4.975680240E-1
1.280292375E0,-2.751629949E-1,-1.371340007E-1,-2.429459989E-1,3.918458450E-1
1.285303223E0,-2.238339931E-1,-9.830500185E-2,-1.496730000E-1,2.866488039E-1
1.290314216E0,-1.632719934E-1,-5.264699832E-2,-6.827499717E-2,1.846372809E-1
1.295325064E0,-9.841299802E-2,-2.715999959E-3,1.805900037E-2,1.000930683E-1
1.300336062E0,-3.393099830E-2,2.330400050E-2,9.475299716E-2,1.033078872E-1
1.305346911E0,1.905700006E-2,4.453000054E-2,1.570509970E-1,1.643505578E-1
1.310357909E0,3.808899969E-2,6.351300329E-2,2.120990008E-1,2.246567596E-1
1.315368757E0,4.082800075E-2,6.349900365E-2,2.144519985E-1,2.273515093E-1
1.320379755E0,4.186499864E-2,5.651300028E-2,1.999879926E-1,2.119943266E-1
1.325390603E0,3.434100002E-2,3.807400167E-2,1.805469990E-1,1.876863147E-1
1.330401372E0,2.093699947E-2,-5.675999913E-3,1.343989968E-1,1.361384048E-1
1.335412380E0,-2.763000084E-3,-4.383200034E-2,6.641899794E-2,7.962638829E-2
1.340423228E0,-2.717299946E-2,-7.879199833E-2,5.326999817E-3,8.351603335E-2
1.345434235E0,-7.835199684E-2,-1.176059991E-1,-4.891899973E-2,1.495435554E-1
1.350445084E0,-1.280110031E-1,-1.296440065E-1,-9.134600312E-2,2.038099056E-1
1.355456082E0,-1.579039991E-1,-1.270799935E-1,-1.051329970E-1,2.283329690E-1
1.360466930E0,-1.827840060E-1,-1.308680028E-1,-8.095099777E-2,2.389340726E-1
1.365478005E0,-1.796350032E-1,-1.083149984E-1,-5.917700008E-2,2.179513492E-1
1.370489007E0,-1.560720056E-1,-1.091469973E-1,-5.200099945E-2,1.974224960E-1
1.375499776E0,-1.405120045E-1,-1.517969966E-1,-7.884500176E-2,2.213650512E-1
1.380510622E0,-9.561499953E-2,-1.465419978E-1,-9.617599845E-2,1.996662413E-1
1.385521620E0,-8.286999539E-3,-8.271499723E-2,-7.479400188E-2,1.118239145E-1
1.390532468E0,9.033100307E-2,3.453999991E-3,-4.089099914E-2,9.921539216E-2
1.395543466E0,1.674350053E-1,8.112099767E-2,3.051999956E-3,1.860763606E-1
1.400554304E0,2.191890031E-1,1.410350055E-1,3.540100157E-2,2.630359724E-1
1.405565302E0,2.788240016E-1,1.926719993E-1,5.379100144E-2,3.431600137E-1
1.410576132E0,3.807150126E-1,3.043079972E-1,1.112840027E-1,4.999314025E-1
1.415587130E0,4.819799960E-1,4.184739888E-1,1.815879941E-1,6.636259454E-1
1.420597906E0,5.292649865E-1,4.438660145E-1,2.471919954E-1,7.336500169E-1
1.425608750E0,5.130159855E-1,4.173269868E-1,2.790569961E-1,7.177882852E-1
1.430619827E0,4.426720142E-1,3.467249870E-1,2.769420147E-1,6.267963053E-1
1.435630598E0,3.104979992E-1,2.353119999E-1,2.405229956E-1,4.578559339E-1
1.440641673E0,1.552820057E-1,1.487410069E-1,1.559859961E-1,2.656464180E-1
1.445652444E0,1.661499962E-2,5.644100159E-2,9.488199651E-2,1.116433524E-1
1.450663519E0,-1.272259951E-1,-2.753899992E-2,2.144999988E-2,1.319278319E-1
1.455674267E0,-2.512159944E-1,-8.234000206E-2,-3.773399815E-2,2.670453264E-1
1.460685265E0,-3.445749879E-1,-1.271470040E-1,-8.745100349E-2,3.775525936E-1
1.465696342E0,-4.038740098E-1,-1.642410010E-1,-1.062339991E-1,4.487482421E-1
1.470707113E0,-4.159730077E-1,-1.657979935E-1,-1.105059981E-1,4.612310629E-1
1.475717959E0,-3.889450133E-1,-1.417749971E-1,-1.001409963E-1,4.259185278E-1
1.480728957E0,-3.397980034E-1,-1.138880029E-1,-1.014069989E-1,3.724466939E-1
1.485739810E0,-2.593970001E-1,-7.090999931E-2,-1.379619986E-1,3.022392177E-1
1.490750808E0,-1.950429976E-1,-5.261800066E-2,-1.694709957E-1,2.636870176E-1
1.495761656E0,-1.067309976E-1,-3.247400001E-2,-1.864770055E-1,2.173010356E-1
1.500772426E0,-1.380500011E-2,1.300199982E-2,-1.768489927E-1,1.778628580E-1
1.505783500E0,4.635199904E-2,1.083500031E-2,-1.984640062E-1,2.040927897E-1
1.510794490E0,9.985899925E-2,-5.569999921E-4,-2.154890001E-1,2.375029245E-1
1.515805567E0,1.374340057E-1,-3.741599992E-2,-2.496519983E-1,2.874268311E-1
1.520816416E0,1.618479937E-1,-8.254600316E-2,-2.652229965E-1,3.214838310E-1
1.525827185E0,1.922709942E-1,-1.151579991E-1,-3.121530116E-1,3.842772470E-1
1.530838183E0,2.077679932E-1,-1.193329990E-1,-3.637700081E-1,4.355875600E-1
1.535849041E0,1.925729960E-1,-1.118739992E-1,-3.913109899E-1,4.502493101E-1
1.540859810E0,1.336269975E-1,-1.019809991E-1,-3.709560037E-1,4.072648466E-1
1.545870803E0,5.557800084E-2,-1.083329991E-1,-3.339819908E-1,3.554840686E-1
1.550881651E0,-2.714999951E-2,-9.324099869E-2,-2.921130061E-1,3.078327706E-1
1.555892673E0,-1.002689973E-1,-9.707699716E-2,-2.694030106E-1,3.034069830E-1
1.560903750E0,-1.804579943E-1,-8.907199651E-2,-2.369969934E-1,3.109123400E-1
1.565914589E0,-2.397730052E-1,-1.046139970E-1,-2.166499943E-1,3.396651328E-1
1.570925587E0,-2.881990075E-1,-1.243799999E-1,-1.845089942E-1,3.641052338E-1
1.575936353E0,-3.213270009E-1,-1.621689945E-1,-1.503719985E-1,3.900789179E-1
1.580947199E0,-3.349080086E-1,-2.032919973E-1,-1.024179980E-1,4.049450045E-1
1.585958197E0,-3.294959962E-1,-2.222010046E-1,-6.907500327E-2,4.033760703E-1
1.590969045E0,-2.803249955E-1,-2.402649969E-1,-3.131499887E-2,3.705266536E-1
1.595980043E0,-2.143979967E-1,-2.013819963E-1,4.245400056E-2,2.971927852E-1
1.600990891E0,-1.390559971E-1,-1.632020026E-1,9.727299958E-2,2.354432001E-1
1.606001909E0,-4.989499971E-2,-1.254699975E-1,1.473799944E-1,1.998827007E-1
1.611012757E0,-2.916000085E-3,-1.091829985E-1,1.974029988E-1,2.256044640E-1
1.616023755E0,1.716299914E-2,-8.596599847E-2,2.307559997E-1,2.468462129E-1
1.621034608E0,1.339100022E-2,-8.860199898E-2,2.663309872E-1,2.810014731E-1
1.626045606E0,9.461999871E-3,-5.584299937E-2,3.116689920E-1,3.167736268E-1
1.631056464E0,5.537000019E-3,-3.782700002E-2,3.284449875E-1,3.306624414E-1
1.636067462E0,-1.231699996E-2,-6.494999863E-3,3.312790096E-1,3.315715243E-1
1.641078324E0,-3.183100000E-2,1.180099975E-2,3.010500073E-1,3.029580550E-1
1.646089322E0,-3.452499956E-2,3.347599879E-2,2.522169948E-1,2.567606483E-1
1.651100170E0,-2.690000110E-4,7.943800092E-2,2.184700072E-1,2.324642174E-1
1.656111192E0,8.161299676E-2,1.282279938E-1,1.949499995E-1,2.472015411E-1
1.661122040E0,1.706400067E-1,2.103810012E-1,2.058120072E-1,3.402010580E-1
1.666133038E0,2.438019961E-1,2.715849876E-1,2.244990021E-1,4.284829294E-1
1.671143796E0,2.461279929E-1,3.170840144E-1,2.437449992E-1,4.696092905E-1
1.676154871E0,2.216330022E-1,3.191539943E-1,2.488429993E-1,4.614144537E-1
1.681165719E0,1.568839997E-1,3.116999865E-1,2.683759928E-1,4.402216992E-1
1.686176702E0,1.085840017E-1,3.043600023E-1,3.118659854E-1,4.490945215E-1
1.691187550E0,6.463000178E-2,2.876999974E-1,3.409720063E-1,4.507884590E-1
1.696198334E0,1.786099933E-2,2.594839931E-1,3.628090024E-1,4.464093751E-1
1.701209409E0,-2.934299968E-2,2.151950002E-1,3.653100133E-1,4.249956536E-1
1.706220180E0,-6.783699989E-2,1.408150047E-1,3.076510131E-1,3.450795126E-1
1.711231183E0,-8.861900121E-2,8.351000026E-3,1.751780063E-1,1.964952937E-1
1.716242031E0,-1.134269983E-1,-1.833969951E-1,-3.258100152E-2,2.180863668E-1
1.721253030E0,-8.423300087E-2,-3.370009959E-1,-2.436379939E-1,4.242927548E-1
1.726263906E0,-4.452599958E-2,-4.272769988E-1,-4.312430024E-1,6.087024934E-1
1.731274904E0,-3.442500159E-2,-4.372999966E-1,-6.208419800E-1,7.601717779E-1
1.736285752E0,-5.164999887E-2,-3.868750036E-1,-7.236440182E-1,8.221925905E-1
1.741296731E0,-6.853699684E-2,-2.884620130E-1,-7.371039987E-1,7.944998161E-1
1.746307579E0,-5.777300149E-2,-1.540630013E-1,-6.445119977E-1,6.651833155E-1
1.751318587E0,-5.456300080E-2,-2.354599908E-2,-4.892269969E-1,4.928230815E-1
1.756329435E0,-2.079200000E-2,1.056270003E-1,-3.167659938E-1,3.345595094E-1
1.761340180E0,3.211399913E-2,1.869439930E-1,-1.252389997E-1,2.272975418E-1
1.766351255E0,9.330300242E-2,2.133760005E-1,-3.190800175E-2,2.350593296E-1
1.771362041E0,1.492889971E-1,2.304079980E-1,3.503699973E-2,2.767718221E-1
1.776373039E0,1.864919960E-1,1.930139959E-1,2.041400038E-2,2.691661171E-1
1.781383897E0,2.236690074E-1,1.515289992E-1,3.139999928E-3,2.701827568E-1
1.786394895E0,2.279569954E-1,9.899599850E-2,-1.206799969E-2,2.488176764E-1
1.791405743E0,2.325010002E-1,4.051800072E-2,-1.338700019E-2,2.363845072E-1
1.796416741E0,2.347030044E-1,-9.649000131E-3,-3.175999969E-3,2.349227329E-1
1.801427589E0,2.486490011E-1,-3.300299868E-2,9.238000028E-3,2.509997297E-1
1.806438596E0,2.347529978E-1,-6.499700248E-2,3.567399830E-2,2.461832944E-1
1.811449444E0,2.032260001E-1,-8.220099658E-2,4.762699828E-2,2.243348879E-1
1.816460447E0,1.895360053E-1,-6.883700192E-2,4.546999931E-2,2.067122419E-1
1.821471296E0,1.558749974E-1,-3.486000001E-2,4.850500077E-2,1.669280369E-1
1.826482294E0,9.776300192E-2,-2.975000069E-2,5.643299967E-2,1.167362435E-1
1.831493132E0,1.569000073E-2,-3.656499833E-2,5.722200125E-2,6.969600170E-2
1.836504130E0,-3.659899905E-2,-5.733900145E-2,5.787900090E-2,8.931532099E-2
1.841514978E0,-6.221099943E-2,-6.821700186E-2,6.080900133E-2,1.105509043E-1
1.846525981E0,-7.558000088E-2,-7.409299910E-2,6.126400083E-2,1.222922191E-1
1.851536829E0,-9.292499721E-2,-7.269500196E-2,5.212999880E-2,1.289850968E-1
1.856547818E0,-1.278890073E-1,-8.536200225E-2,3.095299937E-2,1.568450120E-1
1.861558666E0,-1.591220051E-1,-9.536000341E-2,-7.050999906E-3,1.856422887E-1
1.866569668E0,-1.801339984E-1,-8.668199927E-2,-6.160100177E-2,2.091810455E-1
1.871580516E0,-1.683160067E-1,-8.770100027E-2,-1.017580032E-1,2.153518859E-1
1.876591286E0,-1.247349977E-1,-6.998399645E-2,-1.250440031E-1,1.899804783E-1
1.881602361E0,-7.559700310E-2,-5.708099902E-2,-1.411810070E-1,1.700153642E-1
1.886613361E0,-3.237599880E-2,-3.243700042E-2,-1.357239932E-1,1.432528067E-1
1.891624127E0,-2.491700090E-2,-1.749899983E-2,-1.684940010E-1,1.712229550E-1
1.896634973E0,-5.438200012E-2,-5.092999898E-3,-2.083519995E-1,2.153924239E-1
1.901645957E0,-6.212000176E-2,1.878399961E-2,-2.456140071E-1,2.540432517E-1
1.906656805E0,-4.706700146E-2,4.732200131E-2,-2.230309993E-1,2.328035676E-1
1.911667880E0,-1.283199992E-2,9.435000271E-2,-2.026409954E-1,2.238972002E-1
1.916678882E0,7.925400138E-2,1.365959942E-1,-1.153630018E-1,1.955716865E-1
1.921689728E0,1.674710065E-1,1.700700074E-1,2.653999999E-2,2.401556101E-1
1.926700512E0,2.414519936E-1,1.830980033E-1,1.631799936E-1,3.441680612E-1
1.931711510E0,2.516080141E-1,1.522649974E-1,2.369939983E-1,3.777001157E-1
1.936722358E0,2.306559980E-1,9.191700071E-2,2.432300001E-1,3.475798576E-1
1.941733326E0,1.541939974E-1,3.259300068E-2,2.012950033E-1,2.556516592E-1
1.946744174E0,4.879200086E-2,-4.493099824E-2,1.088280007E-1,1.274479803E-1
1.951754943E0,-4.842900112E-2,-1.426489949E-1,6.322999950E-3,1.507782618E-1
1.956766047E0,-1.430840045E-1,-2.222629935E-1,-5.119600147E-2,2.692487719E-1
1.961776818E0,-2.192980051E-1,-2.585520148E-1,-1.135559976E-1,3.575412200E-1
1.966787893E0,-2.455639988E-1,-2.545349896E-1,-1.279049963E-1,3.760976290E-1
1.971798908E0,-1.980389953E-1,-2.085040063E-1,-7.249400020E-2,2.965615355E-1
1.976809756E0,-1.273549944E-1,-1.397410035E-1,2.878399938E-2,1.912468595E-1
1.981820749E0,-5.412499979E-2,-1.047199965E-1,1.396809965E-1,1.827746537E-1
1.986831598E0,-7.646000013E-3,-7.742600143E-2,1.933560073E-1,2.084221499E-1
1.991842367E0,1.097800024E-2,-5.364700034E-2,1.852799952E-1,1.932024683E-1
1.996853360E0,-1.377599966E-2,-3.849599883E-2,1.156100035E-1,1.226270484E-1
2.001864208E0,-3.463900089E-2,-4.553899914E-2,6.059100106E-2,8.333624803E-2
2.006875201E0,-4.069099948E-2,-2.303300053E-2,1.414999948E-3,4.677904207E-2
2.011886049E0,-1.169400010E-2,2.641999908E-2,-1.879600063E-2,3.446818286E-2
2.016897124E0,1.469999988E-4,7.194700092E-2,-3.840899840E-2,8.155760975E-2
2.021907885E0,-1.135700010E-2,9.071599692E-2,-2.911500074E-2,9.594819861E-2
2.026918883E0,-1.269300003E-2,8.528400213E-2,-8.430299908E-2,1.205880132E-1
2.031929742E0,-2.062899992E-2,9.600300342E-2,-1.344469935E-1,1.664876162E-1
2.036940740E0,-3.295899928E-2,9.919600189E-2,-1.844349951E-1,2.119962496E-1
2.041951593E0,-4.749400169E-2,1.323409975E-1,-2.435210049E-1,2.811979723E-1
2.046962591E0,-4.602000117E-2,1.762679964E-1,-2.782149911E-1,3.325534970E-1
2.051973439E0,-8.286000229E-3,2.146230042E-1,-2.958869934E-1,3.656238567E-1
2.056984437E0,5.733399838E-2,2.521780133E-1,-3.300620019E-1,4.193111767E-1
2.061995270E0,1.058520004E-1,2.914550006E-1,-3.640289903E-1,4.781921885E-1
2.067006268E0,1.308840066E-1,2.927049994E-1,-4.053129852E-1,5.168031113E-1
2.072017116E0,1.331319958E-1,2.431609929E-1,-4.425790012E-1,5.222332516E-1
2.077028109E0,1.180730015E-1,1.745280027E-1,-4.832339883E-1,5.271777166E-1
2.082038881E0,9.758599848E-2,6.660900265E-2,-5.039020181E-1,5.175683821E-1
2.087049965E0,9.956300259E-2,-4.605299979E-2,-4.452069998E-1,4.585225653E-1
2.092060737E0,9.351100028E-2,-1.279370040E-1,-3.332970142E-1,3.690516005E-1
2.097071583E0,5.178200081E-2,-1.820069999E-1,-1.679050028E-1,2.529822397E-1
2.102082672E0,2.406300046E-2,-2.256229967E-1,3.359999973E-3,2.269274206E-1
2.107093672E0,3.094699979E-2,-2.223329991E-1,1.668850034E-1,2.797146469E-1
2.112104443E0,7.217500359E-2,-1.924680024E-1,3.159730136E-1,3.769510690E-1
2.117115270E0,1.685670018E-1,-1.205959991E-1,4.631089866E-1,5.073737898E-1
2.122126268E0,2.730689943E-1,-3.355999943E-3,5.993070006E-1,6.585945789E-1
2.127137116E0,3.932119906E-1,1.296599954E-1,7.033740282E-1,8.161877281E-1
2.132148114E0,5.031129718E-1,2.447780073E-1,7.538459897E-1,9.387878948E-1
2.137158963E0,5.705410242E-1,3.278290033E-1,7.554349899E-1,1.001833788E0
2.142169971E0,5.941849947E-1,3.673880100E-1,7.079300284E-1,9.945826678E-1
2.147180742E0,5.843110085E-1,3.498399854E-1,5.942789912E-1,9.038666325E-1
2.152191812E0,4.975239933E-1,2.928250134E-1,4.500179887E-1,7.319786899E-1
2.157202660E0,3.965600133E-1,2.183009982E-1,2.821469903E-1,5.334061249E-1
2.162213658E0,2.373609990E-1,1.242939979E-1,7.852900028E-2,2.792060989E-1
2.167224506E0,3.263600171E-2,1.654299907E-2,-9.899599850E-2,1.055414001E-1
2.172235504E0,-1.634639949E-1,-8.305200189E-2,-2.481639981E-1,3.085506159E-1
2.177246361E0,-3.286719918E-1,-1.391910017E-1,-3.663290143E-1,5.114649156E-1
2.182257359E0,-4.527499974E-1,-1.920939982E-1,-4.464769959E-1,6.642472222E-1
2.187268207E0,-5.328699946E-1,-2.269500047E-1,-4.672589898E-1,7.441691336E-1
2.192279205E0,-5.613120198E-1,-2.556889951E-1,-4.741699994E-1,7.780007931E-1
2.197290054E0,-5.420100093E-1,-2.781549990E-1,-4.553380013E-1,7.605772472E-1
2.202300823E0,-4.833759964E-1,-2.870109975E-1,-4.060780108E-1,6.934890175E-1
2.207311797E0,-4.094870090E-1,-2.825250030E-1,-3.454450071E-1,6.056667737E-1
2.212322645E0,-2.975600064E-1,-2.277520001E-1,-2.825129926E-1,4.692829871E-1
2.217333643E0,-1.810110062E-1,-1.517630070E-1,-1.884340048E-1,3.021661279E-1
2.222344501E0,-7.127100229E-2,-6.196099892E-2,-7.746999711E-2,1.221487683E-1
2.227355499E0,3.229299933E-2,1.313799992E-2,3.356299922E-2,4.839338554E-2
2.232366323E0,1.118659973E-1,7.635899633E-2,1.636700034E-1,2.124442696E-1
2.237377321E0,1.686780006E-1,1.277019978E-1,2.961269915E-1,3.639385432E-1
2.242388175E0,1.922100037E-1,1.317919940E-1,3.876830041E-1,4.523404989E-1
2.247399173E0,2.047560066E-1,1.289719939E-1,4.528360069E-1,5.134386493E-1
2.252410035E0,1.953520030E-1,9.291200340E-2,4.485299885E-1,4.979700755E-1
2.257420804E0,1.740310043E-1,6.378400326E-2,4.108580053E-1,4.507321711E-1
2.262431879E0,1.201279983E-1,-8.228999563E-3,3.205139935E-1,3.423852690E-1
2.267442660E0,2.957100049E-2,-8.704199642E-2,2.228959948E-1,2.411086429E-1
2.272453735E0,-7.374799997E-2,-1.467940062E-1,1.157950014E-1,2.009868904E-1
2.277464735E0,-1.620569974E-1,-1.762039959E-1,4.259999841E-3,2.394336363E-1
2.282475592E0,-2.294050008E-1,-1.943269968E-1,-6.150500104E-2,3.068753839E-1
2.287486362E0,-2.813839912E-1,-1.822600067E-1,-8.619900048E-2,3.461588194E-1
2.292497351E0,-3.094370067E-1,-1.475500017E-1,-9.123100340E-2,3.547468959E-1
2.297508199E0,-3.140429854E-1,-1.302240044E-1,-8.404300362E-2,3.502063884E-1
2.302519182E0,-3.190219998E-1,-1.179739982E-1,-7.912600040E-2,3.492188777E-1
2.307530030E0,-3.147720098E-1,-1.085299999E-1,-9.318500012E-2,3.457508110E-1
2.312541033E0,-2.943240106E-1,-1.112169996E-1,-1.311070025E-1,3.408590476E-1
2.317552110E0,-2.768410146E-1,-1.349589974E-1,-1.787890047E-1,3.561185007E-1
2.322562881E0,-2.369769961E-1,-1.609890014E-1,-2.672190070E-1,3.917672178E-1
2.327573713E0,-2.127189934E-1,-1.935939938E-1,-3.367660046E-1,4.428762202E-1
2.332584711E0,-1.830630004E-1,-2.162169963E-1,-4.089089930E-1,4.974619746E-1
2.337595559E0,-1.483410001E-1,-1.962569952E-1,-4.521999955E-1,5.147880111E-1
2.342606557E0,-7.175000012E-2,-1.412329972E-1,-4.402300119E-1,4.678646016E-1
2.347617410E0,3.837899864E-2,-2.823299915E-2,-3.702409863E-1,3.732940366E-1
2.352628408E0,1.926050037E-1,1.022809967E-1,-2.327730060E-1,3.189692180E-1
2.357639256E0,3.366680145E-1,2.361949980E-1,-5.420200154E-2,4.148147612E-1
2.362650240E0,4.415409863E-1,3.459079862E-1,1.699000001E-1,5.860689273E-1
2.367661088E0,4.744440019E-1,3.986069858E-1,3.244870007E-1,6.994829903E-1
2.372672076E0,4.307500124E-1,3.690319955E-1,3.996160030E-1,6.938466234E-1
2.377682924E0,3.638139963E-1,2.770889997E-1,4.093399942E-1,6.137574183E-1
2.382693922E0,2.860119939E-1,1.870110035E-1,3.920859993E-1,5.201032656E-1
2.387704708E0,2.091950029E-1,9.832800180E-2,3.193100095E-1,3.941951640E-1
2.392715553E0,1.469949931E-1,6.190000102E-3,2.340870053E-1,2.764824952E-1
2.397726577E0,8.479700238E-2,-6.119599938E-2,1.318320036E-1,1.682710882E-1
2.402737425E0,2.930000052E-2,-1.021040007E-1,4.390100017E-2,1.149391788E-1
2.407748423E0,-1.520000026E-2,-1.238209978E-1,-3.206299990E-2,1.288049512E-1
2.412759271E0,-4.693299904E-2,-1.454519928E-1,-9.847299755E-2,1.818128704E-1
2.417770040E0,-7.792100310E-2,-1.479530036E-1,-1.289730072E-1,2.111772019E-1
2.422781115E0,-9.881900251E-2,-1.622579992E-1,-1.738809943E-1,2.575411690E-1
2.427792138E0,-1.215170026E-1,-1.670130044E-1,-2.163739949E-1,2.991277842E-1
2.432802986E0,-1.297589988E-1,-1.925130039E-1,-2.304539979E-1,3.271203136E-1
2.437813984E0,-1.191670001E-1,-2.102330029E-1,-2.423730046E-1,3.422621258E-1
2.442824818E0,-1.108319983E-1,-2.200810015E-1,-2.186550051E-1,3.294379916E-1
2.447835588E0,-6.712999940E-2,-2.225929946E-1,-2.380719930E-1,3.327647095E-1
2.452846586E0,-1.682100073E-2,-2.182119936E-1,-2.813119888E-1,3.564208962E-1
2.457857429E0,8.611100167E-2,-2.027339935E-1,-3.433949947E-1,4.079660515E-1
2.462868427E0,2.073120028E-1,-1.509280056E-1,-4.047789872E-1,4.791696545E-1
2.467879275E0,3.460519910E-1,-6.817699969E-2,-4.389260113E-1,5.630773723E-1
2.472890288E0,4.761619866E-1,3.538699821E-2,-4.719319940E-1,6.713436408E-1
2.477901365E0,5.603870153E-1,1.452859938E-1,-4.869700074E-1,7.564928388E-1
2.482912213E0,5.536100268E-1,2.034980059E-1,-4.535779953E-1,7.440621601E-1
2.487922957E0,4.909699857E-1,2.744449973E-1,-3.979839981E-1,6.890303666E-1
2.492933955E0,3.927080035E-1,3.063879907E-1,-3.516370058E-1,6.097062905E-1
2.497944800E0,2.853620052E-1,3.096170127E-1,-2.956770062E-1,5.145085623E-1
2.502955798E0,1.574400067E-1,3.060109913E-1,-2.254530042E-1,4.114111565E-1
2.507966665E0,4.829100147E-2,2.769770026E-1,-1.555510014E-1,3.213166582E-1
2.512977663E0,-4.299899936E-2,2.442989945E-1,-5.497200042E-2,2.540724966E-1
2.517988511E0,-7.302899659E-2,2.201219946E-1,8.098299801E-2,2.456525449E-1
2.522999289E0,-9.877000004E-2,1.878959984E-1,2.091639936E-1,2.980100591E-1
2.528010287E0,-1.081610024E-1,1.383810043E-1,3.198699951E-1,3.649176874E-1
2.533021135E0,-7.563199848E-2,1.188109964E-1,4.205160141E-1,4.434748811E-1
2.538032148E0,-2.035799995E-2,9.774199873E-2,4.801299870E-1,4.904006025E-1
2.543042997E0,1.803500019E-2,7.534500211E-2,5.369330049E-1,5.424934859E-1
2.548053995E0,1.729599945E-2,7.234000135E-3,5.546249747E-1,5.549417491E-1
2.553064843E0,-2.799900062E-2,-8.912599832E-2,5.329369903E-1,5.410630492E-1
2.558075918E0,-9.554199874E-2,-1.946229935E-1,4.599249959E-1,5.084657166E-1
2.563086689E0,-1.708859950E-1,-2.930020094E-1,3.286210001E-1,4.722753037E-1
2.568097668E0,-2.239450067E-1,-3.958730102E-1,2.035100013E-1,4.982801690E-1
2.573108745E0,-2.859050035E-1,-4.752709866E-1,5.379699916E-2,5.572416880E-1
2.578119516E0,-3.219980001E-1,-5.340930223E-1,-9.877599776E-2,6.314228111E-1
2.583130362E0,-3.449699879E-1,-5.331940055E-1,-2.225130051E-1,6.729132020E-1
2.588141355E0,-3.649989963E-1,-4.902229905E-1,-3.051120043E-1,6.831077388E-1
2.593152203E0,-3.569490016E-1,-4.110119939E-1,-3.605650067E-1,6.529552610E-1
2.598162973E0,-3.289699852E-1,-3.359760046E-1,-3.818210065E-1,6.057131399E-1
2.603173961E0,-2.959600091E-1,-2.327979952E-1,-3.995800018E-1,5.490459101E-1
2.608184809E0,-2.629910111E-1,-1.558530033E-1,-3.925729990E-1,4.975620465E-1
2.613195807E0,-1.861699969E-1,-6.748899817E-2,-3.821560144E-1,4.304152088E-1
2.618206655E0,-6.440400332E-2,2.951299958E-2,-3.801909983E-1,3.867351652E-1
2.623217720E0,4.330800101E-2,1.117110029E-1,-3.485620022E-1,3.685788932E-1
2.628228722E0,1.329279989E-1,1.912209988E-1,-3.136219978E-1,3.906329233E-1
2.633239491E0,2.396720052E-1,2.890619934E-1,-2.727900147E-1,4.641270281E-1
2.638250337E0,3.353100121E-1,3.704459965E-1,-1.785880029E-1,5.306191811E-1
2.643261330E0,4.039329886E-1,4.222919941E-1,-3.384700045E-2,5.853528910E-1
2.648272179E0,4.025020003E-1,4.201479852E-1,1.368580014E-1,5.977142313E-1
2.653283177E0,3.335520029E-1,3.510079980E-1,2.828060091E-1,5.607519880E-1
2.658294025E0,2.113350034E-1,2.327540070E-1,3.940050006E-1,5.040603653E-1
2.663304794E0,7.541699708E-2,7.787299901E-2,4.487180114E-1,4.616273185E-1
2.668315797E0,-8.058399707E-2,-4.554399848E-2,4.330739975E-1,4.428556466E-1
2.673326645E0,-2.003829926E-1,-1.706639975E-1,4.019730091E-1,4.804808465E-1
2.678337739E0,-2.736150026E-1,-2.650919855E-1,3.151449859E-1,4.944242031E-1
2.683348739E0,-3.043819964E-1,-3.384520113E-1,2.563549876E-1,5.224136708E-1
2.688359510E0,-3.102670014E-1,-3.794240057E-1,1.899479926E-1,5.256504810E-1
2.693370357E0,-3.222669959E-1,-3.910839856E-1,1.233669966E-1,5.215573950E-1
2.698381355E0,-3.264810145E-1,-3.739170134E-1,8.550400287E-2,5.037010227E-1
2.703392199E0,-3.257060051E-1,-3.124389946E-1,5.767500028E-2,4.550043217E-1
2.708403197E0,-3.060410023E-1,-2.431209981E-1,1.136500016E-2,3.910218383E-1
2.713414035E0,-2.797980011E-1,-1.617510021E-1,-4.605200142E-2,3.264522858E-1
2.718425033E0,-2.310499996E-1,-9.222400188E-2,-1.074400023E-1,2.709847282E-1
2.723435881E0,-1.536280066E-1,5.152000114E-3,-1.700759977E-1,2.292464885E-1
2.728446855E0,-6.975699961E-2,1.135860011E-1,-1.956849992E-1,2.367708545E-1
2.733457703E0,1.780300029E-2,2.307640016E-1,-1.723420024E-1,2.885666943E-1
2.738468701E0,1.064539999E-1,3.518399894E-1,-1.287409961E-1,3.894843724E-1
2.743479569E0,2.124589980E-1,4.678129852E-1,-3.637599945E-2,5.150835158E-1
2.748490339E0,2.704620063E-1,5.509349704E-1,6.855800003E-2,6.175590966E-1
2.753501337E0,2.776359916E-1,5.716270208E-1,1.616249979E-1,6.557147510E-1
2.758512199E0,2.544690073E-1,5.333750248E-1,2.376600057E-1,6.369659889E-1
2.763523197E0,2.137109935E-1,4.658159912E-1,3.154709935E-1,6.018129893E-1
2.768534045E0,1.539029926E-1,3.528830111E-1,3.373799920E-1,5.118962880E-1
2.773545043E0,7.119899988E-2,2.280189991E-1,3.105939925E-1,3.918297968E-1
2.778555891E0,-3.615099937E-2,6.095699966E-2,2.228399962E-1,2.338382229E-1
2.783566880E0,-1.280950010E-1,-9.341999888E-2,1.220209971E-1,2.000618634E-1
2.788577728E0,-1.983509958E-1,-2.329130024E-1,-1.369999954E-3,3.059304841E-1
2.793588740E0,-2.637839913E-1,-3.223800063E-1,-7.765000314E-2,4.237220617E-1
2.798599589E0,-3.153289855E-1,-3.840410113E-1,-1.831369996E-1,5.295838254E-1
2.803610587E0,-3.235239983E-1,-3.908270001E-1,-3.028869927E-1,5.908925891E-1
2.808621435E0,-3.155499995E-1,-3.649480045E-1,-3.983870149E-1,6.256764833E-1
2.813632433E0,-2.899290025E-1,-3.002730012E-1,-4.884240031E-1,6.424801231E-1
2.818643286E0,-2.407010049E-1,-1.972360015E-1,-5.154449940E-1,6.020984603E-1
2.823654284E0,-1.642030030E-1,-7.027799636E-2,-4.770750105E-1,5.094135733E-1
2.828665132E0,-6.135400012E-2,5.245599896E-2,-3.974820077E-1,4.055957244E-1
2.833675891E0,3.711799905E-2,1.463840008E-1,-2.126920074E-1,2.608522792E-1
2.838686889E0,1.317290068E-1,2.032929957E-1,2.416699938E-2,2.434432525E-1
2.843697751E0,2.373130023E-1,2.476419955E-1,3.201020062E-1,4.691580900E-1
2.848708749E0,3.032349944E-1,2.861280143E-1,5.892099738E-1,7.217957437E-1
2.853719584E0,3.218129873E-1,2.877160013E-1,8.123710155E-1,9.199406302E-1
2.858730582E0,3.423599899E-1,2.761740088E-1,1.041026950E0,1.130141388E0
2.863741411E0,3.533619940E-1,2.516210079E-1,1.186373949E0,1.263194750E0
2.868752409E0,3.745439947E-1,2.019820064E-1,1.203003049E0,1.276047127E0
2.873763180E0,3.842270076E-1,1.247460023E-1,1.155567050E0,1.224143442E0
2.878774264E0,3.681220114E-1,5.352199823E-2,1.027282000E0,1.092559713E0
2.883785112E0,3.283259869E-1,-1.558999997E-2,8.292790055E-1,8.920452179E-1
2.888795876E0,2.472299933E-1,-1.003070027E-1,5.457059741E-1,6.074365601E-1
2.893806874E0,1.367270052E-1,-1.744090021E-1,2.579660118E-1,3.400871024E-1
2.898817723E0,4.342500120E-2,-1.912419945E-1,-9.592999704E-3,1.963447398E-1
2.903828717E0,-3.842600062E-2,-1.844310015E-1,-2.401909977E-1,3.052590166E-1
2.908839565E0,-1.260879934E-1,-1.726630032E-1,-4.196430147E-1,4.709681035E-1
2.913850572E0,-2.196719944E-1,-1.275639981E-1,-5.549939871E-1,6.103660250E-1
2.918861420E0,-2.866779864E-1,-9.409400076E-2,-6.632050276E-1,7.286143407E-1
2.923872438E0,-3.487110138E-1,-5.708799884E-2,-7.182450294E-1,8.004588266E-1
2.928883286E0,-3.781329989E-1,-3.482000157E-2,-7.276600003E-1,8.207838165E-1
2.933894254E0,-3.710100055E-1,-1.747800037E-2,-7.466179729E-1,8.339018540E-1
2.938905102E0,-3.424490094E-1,2.280999906E-3,-7.393270135E-1,8.147889051E-1
2.943916100E0,-2.860530019E-1,1.748299971E-2,-7.489879727E-1,8.019444859E-1
2.948926939E0,-1.821469963E-1,4.215500131E-2,-7.516440153E-1,7.745471568E-1
2.953937937E0,-1.381199993E-2,8.124899864E-2,-7.044020295E-1,7.092068741E-1
2.958948723E0,1.940159947E-1,1.672250032E-1,-6.356220245E-1,6.852895490E-1
2.963959567E0,3.780199885E-1,2.364290059E-1,-5.479760170E-1,7.064527597E-1
2.968970581E0,4.838089943E-1,2.662200034E-1,-4.561510086E-1,7.162527318E-1
2.973981429E0,5.329350233E-1,2.975260019E-1,-3.385930061E-1,6.979875964E-1
2.978992417E0,5.182300210E-1,2.768479884E-1,-2.197279930E-1,6.272858633E-1
2.984003265E0,4.348829985E-1,2.332240045E-1,-1.139699966E-1,5.064640350E-1
2.989014263E0,3.199940026E-1,1.553049982E-1,-2.632799931E-2,3.566636619E-1
2.994025097E0,1.559650004E-1,5.750999972E-2,3.124300018E-2,1.691407889E-1
2.999036095E0,1.370500028E-2,-7.167699933E-2,5.853199959E-2,9.354899380E-2
3.004046944E0,-1.053190008E-1,-2.159560025E-1,1.022799965E-2,2.404863799E-1
3.009057952E0,-1.859309971E-1,-3.237479925E-1,-3.671900183E-2,3.751418178E-1
3.014068800E0,-2.272859961E-1,-4.006409943E-1,-7.485499978E-2,4.666641205E-1
3.019079812E0,-2.307859957E-1,-4.403249919E-1,-8.952900022E-2,5.051373241E-1
3.024090660E0,-2.045370042E-1,-4.250409901E-1,-8.023999631E-2,4.784701520E-1
3.029101429E0,-1.725929976E-1,-3.868319988E-1,-7.775399834E-2,4.306657897E-1
3.034112427E0,-1.512089968E-1,-3.471649885E-1,-5.816200003E-2,3.831063928E-1
3.039123275E0,-1.401039958E-1,-2.921470106E-1,-3.085899912E-2,3.254708639E-1
3.044134369E0,-1.227540001E-1,-2.358600050E-1,4.710900038E-2,2.700328581E-1
3.049145141E0,-1.203740016E-1,-1.852609962E-1,1.565240026E-1,2.707605960E-1
3.054156139E0,-1.065810025E-1,-1.196700037E-1,2.546209991E-1,3.008525769E-1
3.059166997E0,-4.179299995E-2,-3.739500046E-2,3.440040052E-1,3.485452575E-1
3.064177995E0,6.127199903E-2,3.517999873E-2,4.031249881E-1,4.092696497E-1
3.069188756E0,1.902070045E-1,1.121859998E-1,4.535920024E-1,5.044899481E-1
3.074199600E0,2.817589939E-1,1.392910033E-1,4.353669882E-1,5.369679028E-1
3.079210908E0,2.927060127E-1,1.198910028E-1,3.912290037E-1,5.031011784E-1
3.084221775E0,2.436839938E-1,4.348500073E-2,3.278689981E-1,4.108173731E-1
3.089232544E0,1.479229927E-1,-3.705799952E-2,2.739480138E-1,3.135315317E-1
3.094243557E0,4.352699965E-2,-1.029570028E-1,2.032649964E-1,2.319728495E-1
3.099254405E0,-6.029399857E-2,-1.377830058E-1,1.757439971E-1,2.313125061E-1
3.104265175E0,-1.221529990E-1,-1.469810009E-1,1.604699939E-1,2.495503732E-1
3.109276173E0,-1.431059986E-1,-1.355289966E-1,1.742369980E-1,2.630702705E-1
3.114287030E0,-1.774919927E-1,-1.365460008E-1,1.738509983E-1,2.835002424E-1
3.119298028E0,-1.964990050E-1,-1.358530074E-1,1.402380019E-1,2.770101005E-1
3.124308876E0,-1.911170036E-1,-1.359709948E-1,8.539500087E-2,2.496119522E-1
3.129319889E0,-1.899199933E-1,-1.393930018E-1,-7.389999926E-3,2.357002862E-1
3.134330737E0,-1.535850018E-1,-1.295039952E-1,-9.742700309E-2,2.232748496E-1
3.139341720E0,-1.251550019E-1,-1.157540008E-1,-1.799740046E-1,2.478979741E-1
3.144352568E0,-9.319700301E-2,-9.086500108E-2,-2.311519980E-1,2.652798070E-1
3.149363547E0,-4.618899897E-2,-6.430800259E-2,-2.892990112E-1,2.999380948E-1
3.154374396E0,-1.706900075E-2,-4.084299877E-2,-3.472270072E-1,3.500372778E-1
3.159385165E0,3.969999962E-3,-3.396299854E-2,-3.837029934E-1,3.852236147E-1
3.164396177E0,1.497500017E-2,-2.656899951E-2,-3.749090135E-1,3.761474854E-1
3.169407025E0,-4.645000212E-3,-2.800700068E-2,-3.807229996E-1,3.817800028E-1
3.174418023E0,-1.457300037E-2,-9.650999680E-3,-3.365139961E-1,3.369676301E-1
3.179428862E0,-2.016299963E-2,9.908000007E-3,-2.305369973E-1,2.316290615E-1
3.184439860E0,3.625999903E-3,4.009300098E-2,-9.149099886E-2,9.995598769E-2
3.189450708E0,2.681999933E-3,5.729499832E-2,5.660500005E-2,8.058558175E-2
3.194461710E0,2.465200052E-2,6.631200016E-2,2.113520056E-1,2.228781568E-1
3.199472559E0,5.785899982E-2,8.788099885E-2,3.395479918E-1,3.554765429E-1
3.204483529E0,9.329400212E-2,8.420500159E-2,4.386389852E-1,4.562876422E-1
3.209494300E0,1.127339974E-1,7.394900173E-2,4.872890115E-1,5.055966671E-1
3.214505144E0,1.353880018E-1,3.823300079E-2,4.854049981E-1,5.053807332E-1
3.219516134E0,1.398849934E-1,-1.376200002E-2,4.115949869E-1,4.349340608E-1
3.224526982E0,1.749790013E-1,-6.751199812E-2,3.638710082E-1,4.093624694E-1
3.229537975E0,2.258599997E-1,-9.053099900E-2,2.947239876E-1,3.821921376E-1
3.234548823E0,2.572590113E-1,-7.467599958E-2,1.903260052E-1,3.286072002E-1
3.239559821E0,2.740640044E-1,-4.889500141E-2,9.861599654E-2,2.953420296E-1
3.244570651E0,2.437790036E-1,-1.538999961E-3,3.648100048E-2,2.464983459E-1
3.249581649E0,1.628260016E-1,4.816899821E-2,-3.200999927E-3,1.698316979E-1
3.254592492E0,6.716500223E-2,7.929500192E-2,-1.585499942E-2,1.051200069E-1
3.259603261E0,-8.342999965E-3,1.181159988E-1,5.690000020E-3,1.185469144E-1
3.264614259E0,-4.582900181E-2,1.712830067E-1,3.049100004E-2,1.799107191E-1
3.269625112E0,-2.303900011E-2,2.317299992E-1,8.000999689E-2,2.462340099E-1
3.274636110E0,1.696199924E-2,2.641269863E-1,1.205509976E-1,2.908321119E-1
3.279646958E0,6.493400037E-2,2.597199976E-1,1.159410030E-1,2.917416970E-1
3.284658028E0,1.278550029E-1,2.427079976E-1,9.958600253E-2,2.918414736E-1
3.289668799E0,2.008209974E-1,2.089889944E-1,8.320400119E-2,3.015433278E-1
3.294679797E0,2.650009990E-1,1.800950021E-1,6.202000007E-2,3.263529066E-1
3.299690646E0,2.813259959E-1,1.489090025E-1,1.690600067E-2,3.187538547E-1
3.304701644E0,2.650409937E-1,8.510500193E-2,-5.480299890E-2,2.837128097E-1
3.309712415E0,2.077250034E-1,2.238699980E-2,-1.053159982E-1,2.339707551E-1
3.314723259E0,1.293199956E-1,-2.269699983E-2,-1.632640064E-1,2.095088324E-1
3.319734240E0,5.594399944E-2,-3.196199983E-2,-2.282990068E-1,2.372166458E-1
3.324745088E0,-1.985399984E-2,-2.700199932E-2,-2.716889977E-1,2.737484261E-1
3.329756101E0,-7.491700351E-2,-7.837000303E-3,-2.958309948E-1,3.052702958E-1
3.334766949E0,-1.217610016E-1,4.435999785E-3,-2.913309932E-1,3.157834182E-1
3.339777947E0,-1.699330062E-1,7.650999818E-3,-2.893809974E-1,3.356741367E-1
3.344788825E0,-1.657660007E-1,6.692000199E-3,-3.139779866E-1,3.551131171E-1
3.349799823E0,-1.666029990E-1,8.597999811E-3,-3.387440145E-1,3.775950109E-1
3.354810671E0,-1.236459985E-1,3.021400049E-2,-3.206759989E-1,3.450134998E-1
3.359821678E0,-5.675999820E-2,3.858200088E-2,-2.863250077E-1,2.944355247E-1
3.364832526E0,8.036999963E-3,4.115600139E-2,-2.477589995E-1,2.512825733E-1
3.369843524E0,4.072500020E-2,5.206299946E-2,-2.096540034E-1,2.198269380E-1
3.374854281E0,6.781599671E-2,5.021400005E-2,-1.578280032E-1,1.789696449E-1
3.379865356E0,9.401699901E-2,2.388199978E-2,-1.450179964E-1,1.744699553E-1
3.384876141E0,8.899900317E-2,-2.939000027E-3,-1.066270024E-1,1.389200415E-1
3.389886988E0,6.995599717E-2,-7.255700231E-2,-1.051639989E-1,1.456634024E-1
3.394897986E0,2.595699951E-2,-1.698810011E-1,-1.026059985E-1,2.001532195E-1
3.399908830E0,-2.827100083E-2,-2.481569946E-1,-1.415850073E-1,2.871018247E-1
3.404919828E0,-8.553700149E-2,-3.148210049E-1,-1.765320003E-1,3.709344832E-1
3.409930690E0,-1.346430033E-1,-3.467159867E-1,-1.640799940E-1,4.065254706E-1
3.414941688E0,-1.693339944E-1,-3.423289955E-1,-1.254390031E-1,4.019926446E-1
3.419952526E0,-1.645230055E-1,-3.306860030E-1,-6.768699735E-2,3.755031045E-1
3.424963524E0,-1.328140050E-1,-3.005209863E-1,-9.713999927E-3,3.287047078E-1
3.429974372E0,-8.818300068E-2,-2.525289953E-1,5.114499852E-2,2.723287461E-1
3.434985375E0,-5.833899975E-2,-2.198289931E-1,1.195439994E-1,2.569416138E-1
3.439996147E0,-5.863400176E-2,-1.975709945E-1,1.763319969E-1,2.712290861E-1
3.445007005E0,-7.645399868E-2,-1.880870014E-1,2.214960009E-1,3.004703187E-1
3.450018082E0,-8.338800073E-2,-1.750160009E-1,2.479940057E-1,3.147779949E-1
3.455028853E0,-7.758799940E-2,-1.540499926E-1,2.464250028E-1,3.007932510E-1
3.460039851E0,-5.016199872E-2,-1.256570071E-1,2.169490010E-1,2.556810094E-1
3.465050699E0,-3.654500097E-2,-1.200919971E-1,1.999330074E-1,2.360737857E-1
3.470061693E0,-1.530599967E-2,-9.253700078E-2,1.477580070E-1,1.750137103E-1
3.475072464E0,-1.265699975E-2,-7.613600045E-2,8.422400057E-2,1.142391022E-1
3.480083539E0,-3.745099902E-2,-7.963000238E-2,4.492500052E-2,9.880167143E-2
3.485094382E0,-6.588999927E-2,-9.325200319E-2,-2.524700016E-2,1.169394678E-1
3.490105152E0,-8.423999697E-2,-9.345799685E-2,-1.237649992E-1,1.764895161E-1
3.495116140E0,-8.158200234E-2,-7.814200222E-2,-2.002869993E-1,2.299492938E-1
3.500126988E0,-6.346400082E-2,-4.509999976E-2,-2.786799967E-1,2.893513953E-1
3.505137976E0,-4.924599826E-2,8.298999630E-3,-2.920379937E-1,2.962772882E-1
3.510148824E0,-2.499400079E-2,6.074199826E-2,-2.930940092E-1,3.003637605E-1
3.515159822E0,4.147600010E-2,1.361059994E-1,-2.531340122E-1,2.903823855E-1
3.520170670E0,9.362900257E-2,2.034000009E-1,-2.200399935E-1,3.139355814E-1
3.525181668E0,1.136780009E-1,2.514289916E-1,-1.725389957E-1,3.254365233E-1
3.530192410E0,1.169290021E-1,2.805579901E-1,-1.442559958E-1,3.364446011E-1
3.535203255E0,9.943900257E-2,2.726590037E-1,-1.140329987E-1,3.118245858E-1
3.540214255E0,6.645199656E-2,2.379180044E-1,-8.211299777E-2,2.603140201E-1
3.545225083E0,3.002700023E-2,1.956579983E-1,-4.617499933E-2,2.032628929E-1
3.550236081E0,2.721600048E-2,1.272010058E-1,-3.035799973E-2,1.335755019E-1
3.555246920E0,2.930000052E-2,7.499700040E-2,-1.049199980E-2,8.119804282E-2
3.560257918E0,4.310899973E-2,3.389199823E-2,-7.977000438E-3,5.541377029E-2
3.565268766E0,5.455100164E-2,-1.502100006E-2,1.299099997E-2,5.805349518E-2
3.570279836E0,4.969400167E-2,-5.301899835E-2,2.147999965E-2,7.577531507E-2
3.575290607E0,1.518299989E-2,-9.704499692E-2,8.239999879E-4,9.822898701E-2
3.580301605E0,-2.256200090E-2,-1.380189955E-1,-4.399099946E-2,1.466065996E-1
3.585312453E0,-5.429200083E-2,-1.806219965E-1,-7.233399898E-2,2.020003326E-1
3.590323456E0,-8.019500226E-2,-1.946610063E-1,-1.197419986E-1,2.422029975E-1
3.595334228E0,-1.029049978E-1,-2.089059949E-1,-1.670539975E-1,2.865976123E-1
3.600345081E0,-1.249649972E-1,-2.045059949E-1,-1.926240027E-1,3.074783877E-1
3.605356081E0,-1.279439926E-1,-1.962579936E-1,-2.441480011E-1,3.383712631E-1
3.610366948E0,-1.288989931E-1,-1.933539957E-1,-2.787089944E-1,3.628765928E-1
3.615377946E0,-1.210480034E-1,-1.840060055E-1,-3.177820146E-1,3.866474337E-1
3.620388794E0,-6.537800282E-2,-1.447190046E-1,-3.014070094E-1,3.406817560E-1
3.625399792E0,2.972600050E-2,-8.508999646E-2,-2.511320114E-1,2.668168468E-1
3.630410631E0,1.308629960E-1,-2.412600070E-2,-1.813620031E-1,2.249430234E-1
3.635421629E0,2.013889998E-1,1.009299979E-2,-1.282009929E-1,2.389453755E-1
3.640432478E0,2.215909958E-1,2.321900055E-2,-4.888200015E-2,2.281033567E-1
3.645443476E0,2.303449959E-1,3.663000092E-2,1.119800005E-2,2.335079641E-1
3.650454242E0,2.115920037E-1,4.330300167E-2,6.394899637E-2,2.252460879E-1
3.655465086E0,1.704970002E-1,3.622499853E-2,1.140979975E-1,2.083262601E-1
3.660476086E0,1.214110032E-1,1.563500054E-2,1.591549963E-1,2.007869462E-1
3.665486924E0,5.531900004E-2,-8.840000257E-3,1.943179965E-1,2.022320972E-1
3.670497922E0,-1.709999982E-3,-5.122499913E-2,2.218479961E-1,2.276915853E-1
3.675508703E0,-3.591899946E-2,-6.480699778E-2,2.230370045E-1,2.350226092E-1
3.680519778E0,-5.259799957E-2,-8.788199723E-2,1.978850067E-1,2.228189194E-1
3.685530627E0,-8.265600353E-2,-1.155830026E-1,1.679009944E-1,2.199595175E-1
3.690541610E0,-1.026799977E-1,-1.549790055E-1,1.402129978E-1,2.328548020E-1
3.695552458E0,-1.316470057E-1,-1.893460006E-1,1.291929930E-1,2.643362848E-1
3.700563232E0,-1.366319954E-1,-2.045699954E-1,1.468950063E-1,2.865228230E-1
3.705574307E0,-1.367760003E-1,-2.082230002E-1,1.623589993E-1,2.973633076E-1
3.710585307E0,-1.460839957E-1,-1.844319999E-1,1.759259999E-1,2.937782392E-1
3.715596108E0,-1.481429935E-1,-1.573469937E-1,1.876740009E-1,2.862271013E-1
3.720606954E0,-1.478350013E-1,-9.432400018E-2,2.218600065E-1,2.827968654E-1
3.725617957E0,-1.194019988E-1,-1.261700038E-2,2.595260143E-1,2.859541539E-1
3.730628729E0,-4.254800081E-2,7.070799917E-2,2.672750056E-1,2.797246541E-1
3.735639804E0,6.073100120E-2,1.814990044E-1,2.907550037E-1,3.480928256E-1
3.740650575E0,1.621520072E-1,2.837919891E-1,2.701930106E-1,4.240700761E-1
3.745661421E0,2.481050044E-1,3.665019870E-1,2.603150010E-1,5.134624616E-1
3.750672433E0,2.820290029E-1,4.088079929E-1,1.867119968E-1,5.305899578E-1
3.755683281E0,2.629640102E-1,3.859930038E-1,8.228400350E-2,4.742481702E-1
3.760694269E0,2.220070064E-1,3.206889927E-1,-4.143000022E-2,3.922307814E-1
3.765705117E0,1.499540061E-1,2.587899864E-1,-1.343510002E-1,3.278851205E-1
3.770716115E0,8.926700056E-2,1.768919975E-1,-2.517420053E-1,3.203645009E-1
3.775726963E0,4.666000139E-3,6.410200149E-2,-3.653149903E-1,3.709257072E-1
3.780737961E0,-1.055779979E-1,-5.524000153E-2,-4.919809997E-1,5.062049738E-1
3.785748801E0,-2.245669961E-1,-1.542800069E-1,-5.482010245E-1,6.121740108E-1
3.790759570E0,-3.148880005E-1,-2.566510141E-1,-5.843650103E-1,7.116928137E-1
3.795770568E0,-3.731409907E-1,-3.330470026E-1,-5.145969987E-1,7.176103232E-1
3.800781401E0,-3.908210099E-1,-3.906979859E-1,-3.915419877E-1,6.772673815E-1
3.805792399E0,-4.015730023E-1,-4.207330048E-1,-2.268809974E-1,6.243013091E-1
3.810803238E0,-3.543100059E-1,-4.170210063E-1,-4.654499888E-2,5.491889811E-1
3.815814236E0,-2.856189907E-1,-3.945789933E-1,1.616660058E-1,5.132316117E-1
3.820825084E0,-1.886260062E-1,-3.336049914E-1,3.386200070E-1,5.114054846E-1
3.825836082E0,-5.799000151E-3,-1.778340042E-1,4.449659884E-1,4.792215482E-1
3.830846926E0,2.138590068E-1,4.635399953E-2,4.768370092E-1,5.246502658E-1
3.835857695E0,4.089840055E-1,2.860319912E-1,5.085430145E-1,7.125294481E-1
3.840868784E0,5.550310016E-1,4.888870120E-1,4.730300009E-1,8.779677130E-1
3.845879555E0,6.394940019E-1,6.879870296E-1,3.801229894E-1,1.013297695E0
3.850890548E0,6.893429756E-1,8.293799758E-1,2.509810030E-1,1.107274287E0
3.855901396E0,6.635289788E-1,8.892999887E-1,1.468770057E-1,1.119239934E0
3.860912399E0,5.711439848E-1,8.700109720E-1,7.173799723E-2,1.043202225E0
3.865923170E0,4.208039939E-1,7.894819975E-1,-3.951200098E-2,8.954993154E-1
3.870934015E0,2.044990063E-1,6.286339760E-1,-1.208629981E-1,6.720181423E-1
3.875945030E0,-2.964499965E-2,4.364059865E-1,-1.943140030E-1,4.786302778E-1
3.880955878E0,-2.254550010E-1,2.419009954E-1,-2.433200032E-1,4.105492333E-1
3.885966871E0,-3.448379934E-1,5.474000052E-2,-2.919079959E-1,4.551043698E-1
3.890977948E0,-4.225330055E-1,-1.020879969E-1,-3.516860008E-1,5.591414338E-1
3.895988719E0,-4.484199882E-1,-2.405239940E-1,-3.796490133E-1,6.348745157E-1
3.900999565E0,-4.216420054E-1,-3.352679908E-1,-3.873910010E-1,6.635197013E-1
3.906010563E0,-3.483369946E-1,-3.924359977E-1,-4.103009999E-1,6.661017825E-1
3.911021420E0,-2.345679998E-1,-3.965179920E-1,-4.096310139E-1,6.164788983E-1
3.916032418E0,-1.206969991E-1,-3.841409981E-1,-4.233630002E-1,5.842673206E-1
3.921043190E0,7.478999905E-3,-3.252190053E-1,-4.008269906E-1,5.162224455E-1
3.926054034E0,1.220090017E-1,-2.303729951E-1,-3.750619888E-1,4.567596839E-1
3.931065034E0,2.260600030E-1,-1.170260012E-1,-3.481509984E-1,4.312856682E-1
3.936075882E0,2.993760109E-1,-8.751999587E-3,-3.082210124E-1,4.297706200E-1
3.941086890E0,3.292849958E-1,7.602000237E-2,-2.578999996E-1,4.251118194E-1
3.946097738E0,3.404479921E-1,1.589770019E-1,-2.067970037E-1,4.288863756E-1
3.951108736E0,3.473950028E-1,2.239969969E-1,-1.360200047E-1,4.351544373E-1
3.956119579E0,3.594779968E-1,2.550350130E-1,-7.218900323E-2,4.466302052E-1
3.961130349E0,3.509239852E-1,2.527689934E-1,-3.471399844E-2,4.338719501E-1
3.966141423E0,3.108580112E-1,2.065870017E-1,1.654700004E-2,3.736103527E-1
3.971152408E0,2.402590066E-1,1.081160009E-1,3.325600177E-2,2.655549313E-1
3.976163180E0,1.308300048E-1,-1.808400080E-2,3.431300074E-2,1.364584305E-1
3.981174036E0,3.474700078E-2,-1.457239985E-1,1.015000045E-2,1.501527899E-1
3.986185034E0,-6.256199628E-2,-2.723700106E-1,-2.249800041E-2,2.803668777E-1
3.991195882E0,-1.543769985E-1,-3.909800053E-1,-5.160300061E-2,4.235097305E-1
3.996206880E0,-2.296240032E-1,-4.504469931E-1,-9.807900339E-2,5.150234629E-1
4.001217728E0,-2.658570111E-1,-4.849010110E-1,-1.329749972E-1,5.687629477E-1
4.006228726E0,-2.670170069E-1,-4.786210060E-1,-1.511220038E-1,5.685191372E-1
4.011239574E0,-2.506029904E-1,-4.324609935E-1,-1.426289976E-1,5.197762987E-1
4.016250349E0,-2.195059955E-1,-3.821089864E-1,-9.563600272E-2,4.509283807E-1
4.021261347E0,-1.670950055E-1,-2.976379991E-1,-5.037299916E-2,3.450312426E-1
4.026272195E0,-1.124980003E-1,-2.264019996E-1,1.927099936E-2,2.535449406E-1
4.031283183E0,-5.289300159E-2,-1.474169940E-1,7.523600012E-2,1.737523969E-1
4.036293954E0,-6.715000141E-3,-7.486099750E-2,1.294270009E-1,1.496683291E-1
4.041304793E0,3.344599903E-2,-2.243399993E-2,2.103060037E-1,2.141273789E-1
4.046315870E0,5.871799961E-2,2.380999923E-2,2.558319867E-1,2.635616151E-1
4.051326870E0,7.455100119E-2,5.219899863E-2,2.706960142E-1,2.855852225E-1
4.056337718E0,8.365300298E-2,7.685499638E-2,2.693499923E-1,2.923250480E-1
4.061348488E0,7.712499797E-2,7.685499638E-2,2.587450147E-1,2.807203918E-1
4.066359486E0,4.832899943E-2,4.812299833E-2,2.434020042E-1,2.527766817E-1
4.071370348E0,2.102299966E-2,3.805999830E-2,2.258870006E-1,2.300336215E-1
4.076381346E0,9.056000039E-3,2.708699927E-2,1.752499938E-1,1.775620370E-1
4.081392194E0,2.817899920E-2,4.569999874E-2,1.204190031E-1,1.318456756E-1
4.086402978E0,3.112499975E-2,4.866699874E-2,3.738899902E-2,6.881264145E-2
4.091413976E0,9.073000401E-3,6.259100139E-2,-6.928000133E-3,6.362350177E-2
4.096425053E0,-1.423600037E-2,9.420800209E-2,-5.304500088E-2,1.090485373E-1
4.101435896E0,-1.604799926E-2,1.435119957E-1,-5.551600084E-2,1.547102373E-1
4.106446666E0,-1.855000039E-3,1.896229982E-1,-1.700600050E-2,1.903930843E-1
4.111457664E0,3.010799922E-2,2.678430080E-1,4.355899990E-2,2.730270226E-1
4.116468498E0,5.165100098E-2,3.077580035E-1,1.304399967E-1,3.382268578E-1
4.121479496E0,8.663599938E-2,3.337100148E-1,2.219389975E-1,4.100305952E-1
4.126490358E0,9.550400078E-2,3.198170066E-1,2.652589977E-1,4.263405537E-1
4.131501127E0,9.287100285E-2,2.359749973E-1,2.456520051E-1,3.530639179E-1
4.136512115E0,1.184500009E-1,1.229799986E-1,1.702210009E-1,2.411009579E-1
4.141522963E0,1.111209989E-1,-1.881599985E-2,3.406700119E-2,1.177390284E-1
4.146533961E0,1.042620018E-1,-1.399240047E-1,-1.337980032E-1,2.198890579E-1
4.151544806E0,8.355999738E-2,-1.893749982E-1,-2.992059886E-1,3.638260391E-1
4.156555804E0,7.903700322E-2,-1.846880019E-1,-3.948769867E-1,4.430398860E-1
4.161566652E0,4.311000183E-2,-1.290740073E-1,-4.348360002E-1,4.556324381E-1
4.166577655E0,-1.189500000E-2,-6.755799800E-2,-4.168550074E-1,4.224614436E-1
4.171588503E0,-6.440900266E-2,7.017999887E-3,-3.552809954E-1,3.611403572E-1
4.176599272E0,-1.001420021E-1,6.897100061E-2,-2.647269964E-1,2.913173564E-1
4.181610270E0,-1.165279970E-1,1.090489998E-1,-1.835999936E-1,2.432681979E-1
4.186621347E0,-1.114059985E-1,1.204890013E-1,-1.336089969E-1,2.116134683E-1
4.191632117E0,-3.424499929E-2,1.245940030E-1,-1.099260002E-1,1.696470191E-1
4.196642963E0,4.759699851E-2,1.331849992E-1,-8.378499746E-2,1.643886982E-1
4.201653961E0,9.706400335E-2,1.227980033E-1,-6.251800060E-2,1.685504991E-1
4.206664810E0,1.010110006E-1,8.005599678E-2,-4.170700163E-2,1.354682946E-1
4.211675804E0,8.409699798E-2,4.998600110E-2,-3.073400073E-2,1.025450349E-1
4.216686652E0,4.938299954E-2,2.096400037E-2,3.777999897E-3,5.378143953E-2
4.221697654E0,2.080000006E-2,4.999999874E-6,3.796299919E-2,4.328775041E-2
4.226708425E0,-3.992999904E-3,-3.642699867E-2,5.491400138E-2,6.601831434E-2
4.231719269E0,-3.914099932E-2,-4.599799961E-2,6.450100243E-2,8.836409401E-2
4.236730269E0,-7.036700100E-2,-6.675100327E-2,6.901899725E-2,1.190413090E-1
4.241741117E0,-1.027029976E-1,-8.670800179E-2,6.606499851E-2,1.497690466E-1
4.246752130E0,-1.155029982E-1,-8.744999766E-2,4.394999892E-2,1.513936825E-1
4.251762979E0,-9.559199959E-2,-9.541399777E-2,9.871000424E-3,1.354219259E-1
4.256773977E0,-6.484200060E-2,-8.003900200E-2,-4.313600063E-2,1.116756081E-1
4.261784806E0,-3.314099833E-2,-5.353000015E-2,-7.909200341E-2,1.010907102E-1
4.266795804E0,-9.823000059E-3,-1.618999988E-3,-7.641699910E-2,7.706276820E-2
4.271806575E0,1.678300090E-2,5.212299898E-2,-3.765600175E-2,6.645638126E-2
4.276817635E0,4.192300141E-2,9.163899720E-2,3.930500150E-2,1.081671253E-1
4.281828406E0,2.171600051E-2,1.009970009E-1,1.278530061E-1,1.643726560E-1
4.286839252E0,2.294800058E-2,1.018309966E-1,2.064040005E-1,2.312980199E-1
4.291849998E0,1.734000072E-2,8.684100211E-2,2.463050038E-1,2.617406926E-1
4.296860996E0,2.160499990E-2,5.360899866E-2,2.499559969E-1,2.565515565E-1
4.301871844E0,2.382300049E-2,2.341100015E-2,2.413939983E-1,2.436938093E-1
4.306882842E0,4.041999951E-2,-4.472000059E-3,1.802210063E-1,1.847522293E-1
4.311893690E0,3.173499927E-2,-3.009199910E-2,1.191229969E-1,1.268973088E-1
4.316904688E0,7.249999908E-4,-5.139899999E-2,2.474799938E-2,5.705126027E-2
4.321915550E0,-4.984699935E-2,-8.236899972E-2,-5.279799923E-2,1.098043905E-1
4.326926548E0,-1.126350015E-1,-1.343100071E-1,-1.281329989E-1,2.171264309E-1
4.331937310E0,-1.758089960E-1,-1.482730061E-1,-1.937260032E-1,3.007049246E-1
4.336948155E0,-2.092290074E-1,-1.763570011E-1,-2.498150021E-1,3.705213956E-1
4.341959155E0,-2.231010050E-1,-1.786029935E-1,-3.056930006E-1,4.184749673E-1
4.346970007E0,-2.182729989E-1,-1.926209927E-1,-3.496890068E-1,4.550036817E-1
4.351981005E0,-1.909770072E-1,-2.297170013E-1,-3.820880055E-1,4.850086205E-1
4.356991853E0,-1.537279934E-1,-2.560839951E-1,-3.743140101E-1,4.788760661E-1
4.362002856E0,-8.349499851E-2,-2.694900036E-1,-3.526470065E-1,4.516150883E-1
4.367013704E0,-2.997300029E-2,-2.540149987E-1,-3.167439997E-1,4.071225389E-1
4.372024702E0,1.417300012E-2,-2.449470013E-1,-2.357320040E-1,3.402491515E-1
4.377035487E0,2.624999918E-2,-1.860679984E-1,-1.282380074E-1,2.274980199E-1
4.382046562E0,3.771200031E-2,-1.276289970E-1,-6.219999865E-3,1.332292919E-1
4.387057358E0,8.606199920E-2,-3.494999930E-2,9.728100151E-2,1.345056260E-1
4.392068204E0,1.475320011E-1,4.688600078E-2,2.180120051E-1,2.673821662E-1
4.397079193E0,2.036900073E-1,1.154939979E-1,3.081310093E-1,3.870054283E-1
4.402090041E0,2.250919938E-1,1.595399976E-1,3.841710091E-1,4.729765118E-1
4.407101039E0,2.084240019E-1,1.463519931E-1,3.955839872E-1,4.704744004E-1
4.412111819E0,1.665579975E-1,6.759200245E-2,3.610390127E-1,4.033105677E-1
4.417122894E0,1.184090003E-1,-4.534500092E-2,2.517040074E-1,2.818364203E-1
4.422133747E0,7.757399976E-2,-1.242789999E-1,1.015470028E-1,1.782548429E-1
4.427144516E0,6.628300250E-2,-1.817010045E-1,-6.054199859E-2,2.026672767E-1
4.432155515E0,6.423500180E-2,-2.017910033E-1,-2.174730003E-1,3.035461256E-1
4.437166363E0,2.878100052E-2,-2.176509947E-1,-3.287180066E-1,3.952920810E-1
4.442177376E0,-2.986999974E-2,-2.011480033E-1,-4.131729901E-1,4.605047838E-1
4.447188224E0,-9.482300282E-2,-1.669709980E-1,-4.802829921E-1,5.172450759E-1
4.452199231E0,-1.707089990E-1,-1.127540022E-1,-5.084930062E-1,5.481059795E-1
4.457210002E0,-2.177229971E-1,-4.812600091E-2,-5.001909733E-1,5.476407811E-1
4.462221092E0,-2.392970026E-1,2.006400004E-2,-4.603199959E-1,5.191917932E-1
4.467231863E0,-2.337830067E-1,7.562000304E-2,-3.986839950E-1,4.683180617E-1
4.472242709E0,-2.203850001E-1,9.597100317E-2,-3.038589954E-1,3.874406675E-1
4.477253707E0,-1.920090020E-1,1.077879965E-1,-2.023050040E-1,2.990201058E-1
4.482264556E0,-1.510709971E-1,8.800999820E-2,-9.197700024E-2,1.975549911E-1
4.487275325E0,-1.231710017E-1,7.479199767E-2,2.002100088E-2,1.454846351E-1
4.492286322E0,-9.360100329E-2,4.410199821E-2,1.026289985E-1,1.457355323E-1
4.497297170E0,-7.867500186E-2,-1.366499998E-2,1.080190018E-1,1.343301637E-1
4.502308168E0,-3.153799847E-2,-8.106199652E-2,1.459670067E-1,1.699178027E-1
4.507319016E0,3.810200095E-2,-1.000550017E-1,1.525650024E-1,1.863835985E-1
4.512330005E0,8.565299958E-2,-9.298499674E-2,1.472930014E-1,1.941078932E-1
4.517340853E0,1.230269969E-1,-6.518200040E-2,1.542910039E-1,2.078221572E-1
4.522351623E0,1.526429951E-1,-1.463999972E-2,1.880670041E-1,2.426590439E-1
4.527362616E0,1.700450033E-1,3.717499971E-2,2.366340011E-1,2.937565901E-1
4.532373464E0,1.501259953E-1,7.140000165E-2,2.879480124E-1,3.324903495E-1
4.537384452E0,1.150460020E-1,1.022600010E-1,3.109599948E-1,3.469709047E-1
4.542395300E0,8.620999753E-2,1.135189980E-1,3.341839910E-1,3.633148310E-1
4.547406298E0,9.118299931E-2,1.426779926E-1,3.435370028E-1,3.830000277E-1
4.552417141E0,1.171350032E-1,1.699499935E-1,2.961750031E-1,3.610031048E-1
4.557428139E0,1.309320033E-1,1.885190010E-1,2.565799952E-1,3.442613791E-1
4.562438906E0,1.512870044E-1,2.034099996E-1,2.198610008E-1,3.355625803E-1
4.567449751E0,1.593530029E-1,2.052540034E-1,1.811670065E-1,3.167713208E-1
4.572460751E0,1.554200053E-1,2.156040072E-1,1.428900063E-1,3.017582143E-1
4.577471594E0,1.214559972E-1,2.155369967E-1,1.049700007E-1,2.687498042E-1
4.582482592E0,7.695700228E-2,2.077669948E-1,6.729000062E-2,2.315544181E-1
4.587493435E0,2.924199961E-2,1.834499985E-1,4.631799832E-2,1.914532670E-1
4.592504433E0,-7.590000168E-4,1.621060073E-1,5.146599934E-2,1.700814005E-1
4.597515272E0,-4.244999960E-3,1.434430033E-1,4.215399921E-2,1.495689636E-1
4.602526041E0,-5.067000166E-3,1.371089965E-1,5.424499884E-2,1.475366779E-1
4.607537024E0,-1.702599972E-2,1.027290002E-1,2.541599981E-2,1.071872436E-1
4.612547873E0,-3.731700033E-2,5.260799825E-2,-3.249600157E-2,7.222291957E-2
4.617558871E0,-5.627899989E-2,-1.059999969E-2,-1.052360013E-1,1.198094395E-1
4.622569714E0,-6.005299836E-2,-5.868500099E-2,-1.974010020E-1,2.145167769E-1
4.627580712E0,-7.959599793E-2,-9.890899807E-2,-2.993800044E-1,3.251874841E-1
4.632591560E0,-1.264420003E-1,-1.639679968E-1,-3.971250057E-1,4.478630969E-1
4.637602558E0,-1.654569954E-1,-2.062149942E-1,-4.570649862E-1,5.280237142E-1
4.642613406E0,-2.111719996E-1,-2.236900032E-1,-4.933890104E-1,5.814323233E-1
4.647624161E0,-2.496459931E-1,-2.424629927E-1,-5.205619931E-1,6.261758646E-1
4.652635159E0,-2.720569968E-1,-2.251809984E-1,-5.286639929E-1,6.357728438E-1
4.657646008E0,-2.606559992E-1,-1.911319941E-1,-5.009279847E-1,5.961558814E-1
4.662656996E0,-2.466209978E-1,-1.521030068E-1,-4.350369871E-1,5.226991691E-1
4.667667844E0,-1.696680039E-1,-1.032570004E-1,-3.334630132E-1,3.881324785E-1
4.672678613E0,-6.855099648E-2,-3.765299916E-2,-1.961250007E-1,2.111445083E-1
4.677689693E0,8.214800060E-2,5.131899938E-2,-3.717600182E-2,1.037496449E-1
4.682700464E0,2.628870010E-1,1.417510062E-1,9.807299823E-2,3.143584516E-1
4.687711462E0,4.433589876E-1,2.196449935E-1,2.430280000E-1,5.512474252E-1
4.692722247E0,5.660920143E-1,2.731080055E-1,3.474920094E-1,7.181913728E-1
4.697733322E0,6.238660216E-1,3.072580099E-1,4.401099980E-1,8.229903450E-1
4.702744170E0,6.143400073E-1,3.057360053E-1,4.992339909E-1,8.486004520E-1
4.707755168E0,5.790070295E-1,2.919990122E-1,4.939369857E-1,8.151602967E-1
4.712765940E0,5.253829956E-1,2.706690133E-1,4.601620138E-1,7.490247564E-1
4.717777015E0,4.354999959E-1,2.277120054E-1,3.977800012E-1,6.322514794E-1
4.722787786E0,2.985540032E-1,1.611319929E-1,3.257740140E-1,4.703474462E-1
4.727798632E0,1.229029968E-1,7.870800048E-2,2.415159941E-1,2.821880071E-1
4.732809411E0,-9.088599682E-2,-3.549500182E-2,1.566630006E-1,1.845628763E-1
4.737820409E0,-2.864980102E-1,-1.475239992E-1,1.117260009E-1,3.410676464E-1
4.742831257E0,-4.187119901E-1,-2.553240061E-1,5.179499835E-2,4.931458208E-1
4.747842255E0,-4.989120066E-1,-3.471570015E-1,1.045600045E-2,6.078984306E-1
4.752853104E0,-5.105270147E-1,-3.930490017E-1,-1.188500039E-2,6.444118277E-1
4.757864102E0,-4.696579874E-1,-3.752619922E-1,-1.951299980E-2,6.014822899E-1
4.762874959E0,-3.705849946E-1,-3.189379871E-1,-2.875800058E-2,4.897771946E-1
4.767885728E0,-2.614249885E-1,-2.365580052E-1,-3.466200083E-2,3.542656754E-1
4.772896803E0,-1.608809978E-1,-1.636289954E-1,-2.302299999E-2,2.306235073E-1
4.777907574E0,-4.984699935E-2,-7.883699983E-2,-2.008699998E-2,9.541217666E-2
4.782918577E0,2.751800045E-2,-3.520000027E-3,-2.589699998E-2,3.795109165E-2
4.787929425E0,9.099499881E-2,5.346500129E-2,-7.209000178E-3,1.057854709E-1
4.792940442E0,1.434839964E-1,8.789599687E-2,-4.904999863E-3,1.683372285E-1
4.797951291E0,1.972900033E-1,1.282210052E-1,-1.408400014E-2,2.357166321E-1
4.802962294E0,2.409269959E-1,1.789309978E-1,-2.504299954E-2,3.011465941E-1
4.807973142E0,2.561779916E-1,2.023939937E-1,-5.476099998E-2,3.310426849E-1
4.812983935E0,2.437279969E-1,2.249310017E-1,-8.647199720E-2,3.427458217E-1
4.817994933E0,2.041539997E-1,2.093050033E-1,-1.205760017E-1,3.162688922E-1
4.823005795E0,1.496589929E-1,1.753350049E-1,-1.429779977E-1,2.712616558E-1
4.828016793E0,9.893099964E-2,1.117909998E-1,-1.707330048E-1,2.267913783E-1
4.833027559E0,6.591500342E-2,4.310899973E-2,-1.657689959E-1,1.835280184E-1
4.838038404E0,4.332299903E-2,-3.029200062E-2,-1.450089961E-1,1.543440848E-1
4.843049404E0,-6.107000168E-3,-1.013299972E-1,-1.490779966E-1,1.803588447E-1
4.848060267E0,-7.018300146E-2,-1.795980036E-1,-1.755679995E-1,2.607781031E-1
4.853071265E0,-1.281280071E-1,-2.340240031E-1,-1.383340061E-1,3.005333883E-1
4.858082113E0,-1.828120053E-1,-2.791860104E-1,-8.515000343E-2,3.444061276E-1
4.863093111E0,-2.177969962E-1,-3.083229959E-1,-2.781699970E-2,3.785133906E-1
4.868103964E0,-2.635470033E-1,-3.380750120E-1,4.081799835E-2,4.306017251E-1
4.873114962E0,-2.915129960E-1,-3.477100134E-1,7.322400063E-2,4.596127005E-1
4.878125733E0,-3.021970093E-1,-3.427309990E-1,9.120900184E-2,4.659470486E-1
4.883136592E0,-2.823109925E-1,-2.977190018E-1,1.357769966E-1,4.321706761E-1
4.888147592E0,-2.047600001E-1,-2.420140058E-1,1.640509963E-1,3.569456065E-1
4.893158430E0,-1.040769964E-1,-1.852539927E-1,1.879809946E-1,2.837039255E-1
4.898169199E0,2.373999916E-2,-9.040500224E-2,2.104160041E-1,2.302423652E-1
4.903180206E0,1.621409953E-1,1.583700068E-2,2.291090041E-1,2.811253256E-1
4.908191283E0,2.854149938E-1,1.516830027E-1,2.324759960E-1,3.981388460E-1
4.913202064E0,4.059019983E-1,2.858070135E-1,2.110500038E-1,5.394294998E-1
4.918212910E0,4.772750139E-1,3.786849976E-1,1.931570023E-1,6.391427023E-1
4.923223908E0,4.988969862E-1,4.222930074E-1,1.878170073E-1,6.800770656E-1
4.928234762E0,4.699299932E-1,4.571979940E-1,1.400810033E-1,6.704378358E-1
4.933245760E0,3.776629865E-1,4.366360009E-1,6.391499937E-2,5.808316932E-1
4.938256516E0,2.492859960E-1,3.107230067E-1,-2.022100054E-2,3.988748971E-1
4.943267360E0,1.016519964E-1,1.424510032E-1,-1.293960065E-1,2.176436150E-1
4.948278360E0,-5.334499851E-2,-1.711400039E-2,-1.730030030E-1,1.818477850E-1
4.953289194E0,-1.643390059E-1,-1.451839954E-1,-2.415439934E-1,3.262348879E-1
4.958300192E0,-2.608529925E-1,-2.538599968E-1,-2.823350132E-1,4.606541450E-1
4.963311044E0,-3.297840059E-1,-3.133000135E-1,-3.092469871E-1,5.500437147E-1
4.968321814E0,-3.514589965E-1,-3.294390142E-1,-3.123089969E-1,5.740996428E-1
4.973332812E0,-3.506000042E-1,-3.429790139E-1,-3.154680133E-1,5.831595273E-1
4.978343646E0,-3.255600035E-1,-3.417100012E-1,-2.422839999E-1,5.305248132E-1
4.983354644E0,-2.813780010E-1,-3.092870116E-1,-1.165430024E-1,4.340671681E-1
4.988365492E0,-2.295619994E-1,-2.510629892E-1,3.566500172E-2,3.420574930E-1
4.993376485E0,-1.793330014E-1,-1.867520064E-1,1.810770035E-1,3.159517660E-1
4.998387333E0,-9.575399756E-2,-1.074619964E-1,3.199160099E-1,3.508035948E-1
5.003398102E0,2.742500044E-2,-6.740999874E-3,4.572190046E-1,4.580903731E-1
5.008409105E0,1.894270033E-1,1.425690055E-1,5.792120099E-1,6.258554652E-1
5.013419954E0,3.803330064E-1,3.042779863E-1,6.908019781E-1,8.452488756E-1
5.018430937E0,5.487340093E-1,4.685190022E-1,7.754319906E-1,1.059204343E0
5.023441785E0,7.378979921E-1,6.215119958E-1,8.116700053E-1,1.260784996E0
5.028452559E0,8.629040122E-1,7.015630007E-1,7.719380260E-1,1.353765967E0
5.033463634E0,8.542289734E-1,6.978989840E-1,6.692540050E-1,1.290221320E0
5.038474405E0,7.701960206E-1,6.291139722E-1,4.977020025E-1,1.112067257E0
5.043485394E0,5.846560001E-1,4.964709878E-1,2.592430115E-1,8.096375851E-1
5.048496242E0,3.672679961E-1,3.365379870E-1,-9.200000204E-4,4.981409881E-1
5.053507239E0,1.366849989E-1,1.897480041E-1,-2.874689996E-1,3.705745805E-1
5.058518087E0,-7.959199697E-2,3.754800186E-2,-5.599790215E-1,5.668520468E-1
5.063529061E0,-2.711629868E-1,-9.307999909E-2,-7.685019970E-1,8.202368993E-1
5.068539833E0,-4.252479970E-1,-1.901160032E-1,-9.154909849E-1,1.027182407E0
5.073550677E0,-5.407950282E-1,-2.749229968E-1,-1.040204048E0,1.204187020E0
5.078561750E0,-6.468709707E-1,-3.053629994E-1,-1.105926037E0,1.317103266E0
5.083572750E0,-7.224789858E-1,-3.196929991E-1,-1.143826962E0,1.390150933E0
5.088583531E0,-7.844020128E-1,-3.321099877E-1,-1.156386971E0,1.436250114E0
5.093594377E0,-7.992010117E-1,-3.378860056E-1,-1.119670033E0,1.416527512E0
5.098605375E0,-7.261549830E-1,-3.203670084E-1,-1.014492989E0,1.288073019E0
5.103616146E0,-5.748980045E-1,-2.765989900E-1,-8.339729905E-1,1.050012222E0
5.108626991E0,-3.852280080E-1,-2.275619954E-1,-6.073849797E-1,7.543882247E-1
5.113637977E0,-2.062570006E-1,-1.705079973E-1,-2.941640019E-1,3.976774918E-1
5.118648825E0,-4.328000173E-2,-1.106370017E-1,2.701899968E-2,1.218348515E-1
5.123659594E0,1.099909991E-1,-6.049999967E-2,3.373819888E-1,3.599789941E-1
5.128670592E0,2.228759974E-1,-4.393799976E-2,6.131560206E-1,6.538842128E-1
5.133681440E0,2.792379856E-1,-4.934100062E-2,8.331570029E-1,8.800903240E-1
5.138692452E0,2.676070035E-1,-8.504799753E-2,8.999469876E-1,9.427360451E-1
5.143703300E0,2.200759947E-1,-1.117499992E-1,8.667989969E-1,9.012557944E-1
5.148714317E0,1.929720044E-1,-1.096289977E-1,7.391420007E-1,7.717432272E-1
5.153725089E0,1.663029939E-1,-7.739400119E-2,5.843719840E-1,6.124843940E-1
5.158735924E0,1.185149997E-1,-1.089300029E-2,4.625659883E-1,4.776314020E-1
5.163746924E0,7.545500249E-2,6.300599873E-2,2.997359931E-1,3.154439393E-1
5.168757772E0,5.518599972E-2,1.465580016E-1,1.389490068E-1,2.093599028E-1
5.173768770E0,1.244699955E-2,2.186030000E-1,-2.471400052E-2,2.203474104E-1
5.178779618E0,-5.930000171E-2,2.284750044E-1,-1.632969975E-1,2.870247851E-1
5.183790630E0,-1.407980025E-1,1.827879995E-1,-2.871029973E-1,3.683254829E-1
5.188801401E0,-2.482569963E-1,8.803699911E-2,-3.920049965E-1,4.722816604E-1
5.193812227E0,-3.694370091E-1,-2.855800092E-2,-4.927009940E-1,6.164848194E-1
5.198823227E0,-4.673919976E-1,-1.470520049E-1,-5.393620133E-1,7.286912604E-1
5.203834075E0,-5.270230174E-1,-2.276719958E-1,-5.915560126E-1,8.243338611E-1
5.208844844E0,-5.411729813E-1,-2.683739960E-1,-5.679860115E-1,8.291567443E-1
5.213855842E0,-4.792999923E-1,-2.649970055E-1,-4.782400131E-1,7.270938080E-1
5.218866690E0,-3.785009980E-1,-2.177670002E-1,-3.008269966E-1,5.302663045E-1
5.223877697E0,-2.300350070E-1,-1.301030070E-1,-1.072039977E-1,2.851939585E-1
5.228888545E0,-2.270800062E-2,4.164999817E-3,1.125430018E-1,1.148865865E-1
5.233899543E0,1.524939984E-1,1.134750023E-1,3.058899939E-1,3.601384235E-1
5.238910402E0,3.026440144E-1,1.793330014E-1,4.536339939E-1,5.740535909E-1
5.243921400E0,3.970929980E-1,2.116180062E-1,5.582979918E-1,7.170506797E-1
5.248932185E0,4.103429914E-1,2.129430026E-1,6.009169817E-1,7.581736686E-1
5.253943029E0,3.635300100E-1,1.787690073E-1,5.935090184E-1,7.185856811E-1
5.258954020E0,2.625310123E-1,1.327670068E-1,5.338709950E-1,6.095636553E-1
5.263964868E0,1.478150040E-1,1.054769978E-1,4.700799882E-1,5.039343884E-1
5.268975850E0,4.492399842E-2,7.979299873E-2,3.950499892E-1,4.055238369E-1
5.273986698E0,-4.690000042E-2,7.662200183E-2,3.113889992E-1,3.240889539E-1
5.278997468E0,-1.397210062E-1,8.380100131E-2,2.311560065E-1,2.828032297E-1
5.284008471E0,-1.918220073E-1,9.197799861E-2,1.733050048E-1,2.743907058E-1
5.289019319E0,-2.368829995E-1,1.179900020E-1,1.401959956E-1,2.994830767E-1
5.294030103E0,-2.285709977E-1,1.402370036E-1,7.908599824E-2,2.795813178E-1
5.299041101E0,-1.382569969E-1,1.773460060E-1,-2.856000094E-3,2.248883273E-1
5.304051963E0,-3.451999975E-3,2.010280043E-1,-1.059790030E-1,2.272789561E-1
5.309062961E0,1.137769967E-1,2.188089937E-1,-2.160730064E-1,3.278873660E-1
5.314073809E0,2.090329975E-1,2.312020063E-1,-3.093999922E-1,4.391782292E-1
5.319084807E0,2.524429858E-1,2.392349988E-1,-3.647480011E-1,5.039860613E-1
5.324095656E0,2.639229894E-1,2.247949988E-1,-3.968519866E-1,5.269531621E-1
5.329106654E0,2.115450054E-1,2.141389996E-1,-4.174900055E-1,5.146889402E-1
5.334117425E0,1.432220042E-1,2.077820003E-1,-3.981679976E-1,4.714060420E-1
5.339128278E0,1.009579971E-1,2.320819944E-1,-2.983439863E-1,3.912335664E-1
5.344139278E0,6.351699680E-2,2.184779942E-1,-1.901469976E-1,2.965179986E-1
5.349150049E0,-2.426199988E-2,1.222670004E-1,-1.909130067E-1,2.280035968E-1
5.354160903E0,-1.239370033E-1,-5.896999966E-3,-2.098640054E-1,2.437992128E-1
5.359171903E0,-1.822360009E-1,-1.118900031E-1,-2.228589952E-1,3.088615621E-1
5.364182738E0,-1.847919971E-1,-1.683679968E-1,-2.128109932E-1,3.283053203E-1
5.369193813E0,-1.473760009E-1,-1.789319962E-1,-1.697950065E-1,2.873441998E-1
5.374204603E0,-1.570390016E-1,-1.910469979E-1,-8.423999697E-2,2.612596037E-1
5.379215372E0,-1.634089947E-1,-1.722999960E-1,8.440000005E-3,2.376152810E-1
5.384226355E0,-1.177269965E-1,-8.402899653E-2,9.936799854E-2,1.754836662E-1
5.389237203E0,-3.999200091E-2,2.076200023E-2,2.244749963E-1,2.289529313E-1
5.394248201E0,6.478899717E-2,1.252630055E-1,3.430779874E-1,3.709325278E-1
5.399259035E0,1.760330051E-1,2.106360048E-1,4.384090006E-1,5.172597000E-1
5.404270033E0,2.853170037E-1,2.722870111E-1,4.794209898E-1,6.207982720E-1
5.409280795E0,3.749499917E-1,3.031510115E-1,4.351350069E-1,6.494848006E-1
5.414291870E0,4.200800061E-1,2.756429911E-1,3.363420069E-1,6.046256823E-1
5.419302641E0,4.245649874E-1,1.983409971E-1,2.113229930E-1,5.140544592E-1
5.424313492E0,3.778530061E-1,1.074230000E-1,4.096600041E-2,3.949567171E-1
5.429324490E0,3.183600008E-1,-4.069999792E-3,-1.915609986E-1,3.715713541E-1
5.434335338E0,2.363590002E-1,-7.837399840E-2,-3.404549956E-1,4.218028742E-1
5.439346107E0,1.693740040E-1,-1.645539999E-1,-4.374209940E-1,4.970942548E-1
5.444357105E0,8.897300065E-2,-1.919779927E-1,-5.154160261E-1,5.571583478E-1
5.449367954E0,2.794500068E-2,-2.157730013E-1,-5.936120152E-1,6.322294962E-1
5.454378952E0,-3.579799831E-2,-2.263620049E-1,-6.266009808E-1,6.671956557E-1
5.459389820E0,-1.281889975E-1,-2.354360074E-1,-6.359750032E-1,6.901642829E-1
5.464400818E0,-1.793269962E-1,-2.193419933E-1,-5.763710141E-1,6.422403191E-1
5.469411647E0,-1.768320054E-1,-1.839119941E-1,-5.337309837E-1,5.915758131E-1
5.474422416E0,-1.665329933E-1,-1.599829942E-1,-4.771220088E-1,5.300690593E-1
5.479433486E0,-1.210739985E-1,-1.124449968E-1,-4.087870121E-1,4.409190534E-1
5.484444486E0,-2.769000083E-2,-1.869500056E-2,-3.235990107E-1,3.253191647E-1
5.489455242E0,6.355000287E-2,6.164700165E-2,-2.383919954E-1,2.543023774E-1
5.494466012E0,1.298879981E-1,1.008040011E-1,-1.605969965E-1,2.298341445E-1
5.499476851E0,1.305959970E-1,1.091360003E-1,-8.545400202E-2,1.904425568E-1
5.504487851E0,9.349600226E-2,1.013820022E-1,1.434999984E-3,1.379198029E-1
5.509498695E0,5.233599991E-2,9.161300212E-2,6.433399767E-2,1.235753305E-1
5.514509464E0,-1.114400011E-2,9.361500293E-2,1.060009971E-1,1.418596803E-1
5.519520539E0,-7.996200025E-2,6.992200017E-2,1.572290063E-1,1.897471159E-1
5.524531519E0,-1.840330064E-1,2.131300047E-2,2.082780004E-1,2.787509944E-1
5.529542290E0,-2.872650027E-1,-3.566600010E-2,2.114199996E-1,3.584573358E-1
5.534553123E0,-3.500609994E-1,-9.877499938E-2,1.809359938E-1,4.062475079E-1
5.539564121E0,-3.921410143E-1,-1.745750010E-1,1.547880024E-1,4.563007032E-1
5.544574969E0,-4.211719930E-1,-2.716439962E-1,1.468529999E-1,5.222471752E-1
5.549585738E0,-4.399270117E-1,-3.686079979E-1,1.164859980E-1,5.856420575E-1
5.554596736E0,-4.559380114E-1,-4.558709860E-1,9.475100040E-2,6.516713728E-1
5.559607579E0,-4.579710066E-1,-5.194380283E-1,1.080270037E-1,7.008731281E-1
5.564618577E0,-4.513359964E-1,-5.179259777E-1,1.330209970E-1,6.997471584E-1
5.569629435E0,-4.641180038E-1,-5.088199973E-1,1.794179976E-1,7.116840092E-1
5.574640205E0,-4.633660018E-1,-4.575639963E-1,2.357189953E-1,6.925578006E-1
5.579651203E0,-3.911499977E-1,-3.937569857E-1,2.708660066E-1,6.175850371E-1
5.584662065E0,-2.889170051E-1,-3.155759871E-1,3.064830005E-1,5.263013101E-1
5.589673063E0,-1.919489950E-1,-2.514280081E-1,3.496989906E-1,4.715398646E-1
5.594683911E0,-9.035599977E-2,-1.968470067E-1,3.743500113E-1,4.324937939E-1
5.599694680E0,1.813899912E-2,-1.055720001E-1,3.571150005E-1,3.728345398E-1
5.604705678E0,1.283379942E-1,-1.112399995E-2,3.577489853E-1,3.802350860E-1
5.609716497E0,2.540639937E-1,1.026149988E-1,3.572730124E-1,4.502469947E-1
5.614727495E0,3.348039985E-1,1.674209982E-1,3.387440145E-1,5.048475170E-1
5.619738358E0,3.395929933E-1,2.240640074E-1,2.833830118E-1,4.958165103E-1
5.624749357E0,2.800169885E-1,2.448319942E-1,2.150380015E-1,4.296435282E-1
5.629760214E0,1.903569996E-1,2.188879997E-1,1.142349988E-1,3.117649414E-1
5.634770983E0,4.825399816E-2,1.496749967E-1,-2.398299985E-2,1.590793427E-1
5.639781981E0,-8.214899898E-2,5.249899998E-2,-1.689649969E-1,1.950737635E-1
5.644792814E0,-1.854110062E-1,-2.676000074E-2,-2.660329938E-1,3.253719297E-1
5.649803583E0,-2.625150084E-1,-1.043810025E-1,-3.298859894E-1,4.343204915E-1
5.654814581E0,-3.051050007E-1,-1.731189936E-1,-3.822779953E-1,5.188407397E-1
5.659825435E0,-3.445949852E-1,-2.327390015E-1,-4.089959860E-1,5.832588304E-1
5.664836433E0,-3.536320031E-1,-2.574959993E-1,-4.124200046E-1,6.012071552E-1
5.669847281E0,-3.379069865E-1,-2.920739949E-1,-3.786709905E-1,5.855596204E-1
5.674858269E0,-2.981669903E-1,-3.105689883E-1,-3.364239931E-1,5.463860849E-1
5.679869117E0,-2.699519992E-1,-3.109189868E-1,-2.830989957E-1,4.996896433E-1
5.684880101E0,-2.246170044E-1,-3.081200123E-1,-2.782759964E-1,4.720468947E-1
5.689890872E0,-1.485890001E-1,-2.487899959E-1,-2.735530138E-1,3.985052125E-1
5.694901716E0,-4.732999951E-2,-2.068330050E-1,-2.811270058E-1,3.522107525E-1
5.699912720E0,5.289800093E-2,-1.561840028E-1,-2.937049866E-1,3.368297201E-1
5.704923492E0,1.865819991E-1,-5.752599984E-2,-2.846420109E-1,3.451712002E-1
5.709934336E0,3.199979961E-1,4.135699943E-2,-2.563839853E-1,4.121187533E-1
5.714945336E0,3.950549960E-1,1.596609950E-1,-1.823190004E-1,4.634655339E-1
5.719956199E0,4.416019917E-1,2.785539925E-1,-7.194200158E-2,5.270486670E-1
5.724967197E0,4.446069896E-1,3.486770093E-1,1.006400026E-2,5.651126579E-1
5.729978045E0,4.317359924E-1,3.568359911E-1,5.386399850E-2,5.626981625E-1
5.734989062E0,3.831270039E-1,3.159930110E-1,7.366099954E-2,5.020595851E-1
5.739999833E0,2.953430116E-1,2.574270070E-1,6.000800058E-2,3.963547887E-1
5.745010677E0,2.298779935E-1,1.839060038E-1,5.090200156E-2,2.987579687E-1
5.750021454E0,1.901250035E-1,1.233970001E-1,1.292899996E-2,2.270275217E-1
5.755032529E0,1.492770016E-1,5.490000173E-2,-8.747999556E-3,1.592926894E-1
5.760043290E0,1.258900017E-1,1.792199910E-2,-4.962699860E-2,1.365002914E-1
5.765054365E0,1.099359989E-1,1.171599980E-2,-9.511099756E-2,1.458399478E-1
5.770065136E0,7.790800184E-2,7.600999903E-3,-1.331859976E-1,1.544860573E-1
5.775076139E0,4.639000166E-3,-1.562000019E-3,-1.852290034E-1,1.852936693E-1
5.780086910E0,-4.156700149E-2,-5.704999901E-3,-1.822170019E-1,1.869850219E-1
5.785097754E0,-7.775700092E-2,-9.747000411E-3,-1.887529939E-1,2.043742839E-1
5.790108755E0,-1.368370056E-1,-4.611499980E-2,-1.788689941E-1,2.298805698E-1
5.795119617E0,-1.395179927E-1,-5.056599900E-2,-1.144440025E-1,1.874022952E-1
5.800130615E0,-8.268900216E-2,-3.352199867E-2,-4.562899843E-2,1.002157721E-1
5.805141386E0,1.538699958E-2,-6.988999899E-3,4.890500009E-2,5.174267977E-2
5.810152259E0,8.406099677E-2,1.458999980E-2,1.430519968E-1,1.665622798E-1
5.815163259E0,1.692820042E-1,3.373499960E-2,2.296620011E-1,2.872961572E-1
5.820174107E0,2.338089943E-1,7.117000222E-2,2.996709943E-1,3.866969354E-1
5.825185105E0,2.808269858E-1,9.385400265E-2,3.673650026E-1,4.718362162E-1
5.830195882E0,2.992829978E-1,1.395689994E-1,4.474459887E-1,5.561094597E-1
5.835206726E0,3.132370114E-1,1.958069950E-1,5.018740296E-1,6.231655849E-1
5.840217726E0,3.091149926E-1,2.225179970E-1,5.376740098E-1,6.589079439E-1
5.845228584E0,2.832869887E-1,2.365889996E-1,5.358030200E-1,6.506233542E-1
5.850239582E0,2.392960042E-1,2.260639966E-1,4.605149925E-1,5.660755837E-1
5.855250444E0,1.661839932E-1,1.911170036E-1,3.310109973E-1,4.167866468E-1
5.860261442E0,8.302599937E-2,1.297409981E-1,1.566880047E-1,2.197206727E-1
5.865272223E0,-7.956000045E-3,5.204100162E-2,-2.680799924E-2,5.907819064E-2
5.870283067E0,-5.851700157E-2,-2.058600076E-2,-2.149090022E-1,2.236825923E-1
5.875294095E0,-9.144199640E-2,-8.528999984E-2,-3.529370129E-1,3.744336495E-1
5.880304944E0,-1.008419991E-1,-1.254860014E-1,-4.505810142E-1,4.784758046E-1
5.885315942E0,-1.156409979E-1,-1.269959956E-1,-4.718990028E-1,5.021847191E-1
5.890326713E0,-9.870599955E-2,-1.001539975E-1,-4.861269891E-1,5.060564663E-1
5.895337557E0,-9.555099905E-2,-5.668200180E-2,-4.311650097E-1,4.452483671E-1
5.900348542E0,-8.475399762E-2,-3.879999975E-3,-3.524430096E-1,3.625111992E-1
5.905359390E0,-3.844799846E-2,5.792599916E-2,-2.643010020E-1,2.732923154E-1
5.910370159E0,5.396999884E-3,1.027550027E-1,-1.764079928E-1,2.042241370E-1
5.915381158E0,8.907300234E-2,1.216489971E-1,-6.760200113E-2,1.652347082E-1
5.920392006E0,1.631480008E-1,1.242469996E-1,1.196200028E-2,2.054207306E-1
5.925402991E0,2.142470032E-1,1.035600007E-1,5.995500088E-2,2.453997845E-1
5.930413762E0,2.479320019E-1,5.800100043E-2,1.263909936E-1,2.842693738E-1
5.935424596E0,2.741549909E-1,3.014699928E-2,1.947869956E-1,3.376562961E-1
5.940435596E0,2.283550054E-1,-8.364000358E-3,2.629280090E-1,3.483491107E-1
5.945446444E0,1.337680072E-1,-3.894000128E-2,3.001689911E-1,3.309254095E-1
5.950457356E0,5.657099932E-2,-6.421300024E-2,3.328120112E-1,3.436385051E-1
5.955468128E0,5.650000181E-3,-7.060900331E-2,3.371709883E-1,3.445313182E-1
5.960478972E0,-5.471500009E-2,-7.953500003E-2,3.443210125E-1,3.575982482E-1
5.965489986E0,-8.462499827E-2,-9.811799973E-2,3.373860121E-1,3.614109204E-1
5.970500834E0,-8.243600279E-2,-1.032970026E-1,2.639960051E-1,2.952284810E-1
5.975511603E0,-5.138799921E-2,-1.025850028E-1,1.672510058E-1,2.028233423E-1
5.980522596E0,-3.673100099E-2,-8.921699971E-2,4.736100137E-2,1.074797838E-1
5.985533444E0,-3.363500163E-2,-8.442299813E-2,-8.622200042E-2,1.252708637E-1
5.990544442E0,-5.381000042E-2,-8.280800283E-2,-1.882629991E-1,2.125926581E-1
5.995555290E0,-6.698200107E-2,-4.184100032E-2,-2.490630001E-1,2.612845877E-1
6.000566288E0,-6.686899811E-2,2.171400003E-2,-2.615649998E-1,2.708490536E-1
6.005577046E0,-3.048699908E-2,7.058200240E-2,-2.239399999E-1,2.367707747E-1
6.010587890E0,4.177699983E-2,1.003440022E-1,-1.914449930E-1,2.201486358E-1
6.015598952E0,9.623400122E-2,1.184670031E-1,-1.783719957E-1,2.347594144E-1
6.020609723E0,1.269080043E-1,1.016829982E-1,-1.824540049E-1,2.444065007E-1
6.025620492E0,1.346019953E-1,8.083800226E-2,-2.202129960E-1,2.704556218E-1
6.030631490E0,1.056350023E-1,5.610100180E-2,-2.557399869E-1,2.823278537E-1
6.035642338E0,8.712399751E-2,3.889000043E-3,-3.156140149E-1,3.274414782E-1
6.040653341E0,5.987700075E-2,-6.112100184E-2,-3.736610115E-1,3.833322104E-1
6.045664190E0,5.629000068E-2,-9.197399765E-2,-4.200670123E-1,4.336866095E-1
6.050674959E0,6.848800182E-2,-8.672499657E-2,-4.284139872E-1,4.424368608E-1
6.055685957E0,9.130699933E-2,-4.575400054E-2,-3.818390071E-1,3.952612099E-1
6.060696805E0,1.292500049E-1,1.631600037E-2,-3.209420145E-1,3.463748725E-1
6.065707808E0,1.449960023E-1,9.440200031E-2,-2.502439916E-1,3.042328610E-1
6.070718656E0,1.811150014E-1,1.722249985E-1,-1.389109939E-1,2.859376822E-1
6.075729640E0,2.253060043E-1,2.336030006E-1,-1.835300028E-2,3.250692082E-1
6.080740412E0,2.329590023E-1,2.463929951E-1,1.253080070E-1,3.614989646E-1
6.085751486E0,2.097290009E-1,2.235630006E-1,2.773909867E-1,4.134155640E-1
6.090762258E0,1.569709927E-1,1.609849930E-1,4.138669968E-1,4.710010101E-1
6.095773104E0,9.215400368E-2,8.720699698E-2,5.205590129E-1,5.357976359E-1
6.100783873E0,3.441800177E-2,-1.461699978E-2,5.807650089E-1,5.819675688E-1
6.105794885E0,-2.546899952E-2,-1.229849979E-1,6.376330256E-1,6.498844936E-1
6.110805656E0,-7.326799631E-2,-2.169470042E-1,6.938189864E-1,7.306291726E-1
6.115816501E0,-1.231139973E-1,-2.553009987E-1,6.975409985E-1,7.529270222E-1
6.120827501E0,-1.238389984E-1,-2.608770132E-1,6.826580167E-1,7.412252568E-1
6.125838349E0,-1.117239967E-1,-2.393420041E-1,6.590679884E-1,7.100263796E-1
6.130849347E0,-1.148890033E-1,-1.756570041E-1,5.773329735E-1,6.143030428E-1
6.135860209E0,-1.420879960E-1,-1.411010027E-1,4.684599936E-1,5.094636956E-1
6.140870978E0,-1.719129980E-1,-9.084200114E-2,3.327000141E-1,3.853513299E-1
6.145881996E0,-1.812289953E-1,-7.457700372E-2,1.840649992E-1,2.688598188E-1
6.150892844E0,-1.872970015E-1,-5.183999985E-2,2.975100093E-2,1.966028342E-1
6.155903842E0,-1.765040010E-1,-2.986199968E-2,-1.279300004E-1,2.200261039E-1
6.160914786E0,-1.658760011E-1,-8.271999657E-3,-2.652519941E-1,3.129566969E-1
6.165925556E0,-1.416810006E-1,-1.030499954E-2,-4.065319896E-1,4.306366885E-1
6.170936631E0,-1.345189959E-1,-2.570899948E-2,-5.447970033E-1,5.617473522E-1
6.175947382E0,-1.395220011E-1,-3.946299851E-2,-6.516069770E-1,6.675442828E-1
6.180958380E0,-1.313299984E-1,-2.776600048E-2,-7.222769856E-1,7.346445149E-1
6.185969214E0,-9.956199676E-2,9.897000156E-3,-7.142329812E-1,7.212068311E-1
6.190979983E0,-5.705400184E-2,6.652700156E-2,-6.492530107E-1,6.551415672E-1
6.195990967E0,5.332999863E-3,8.591400087E-2,-5.710359812E-1,5.774874442E-1
6.201001815E0,5.019399896E-2,1.089010015E-1,-4.819119871E-1,4.966065132E-1
6.206012814E0,1.154839993E-1,1.453319937E-1,-3.485710025E-1,3.949173157E-1
6.211023599E0,1.731600016E-1,1.807959974E-1,-2.259149998E-1,3.372078973E-1
6.216034443E0,1.891379952E-1,1.683019996E-1,-1.259869933E-1,2.827922679E-1
6.221045443E0,1.927839965E-1,1.160020009E-1,-2.518099919E-2,2.263983574E-1
6.226056291E0,1.616100073E-1,2.206400037E-2,5.496099964E-2,1.721200919E-1
6.231067289E0,9.898299724E-2,-1.006020010E-1,1.716189981E-1,2.221969325E-1
6.236078060E0,1.373999985E-3,-2.563140094E-1,2.841329873E-1,3.826621405E-1
6.241088905E0,-1.185500026E-1,-3.771960139E-1,3.574289978E-1,5.329975839E-1
6.246099905E0,-1.815599948E-1,-4.319950044E-1,4.328320026E-1,6.379085029E-1
6.251110753E0,-1.873120070E-1,-3.901790082E-1,5.017259717E-1,6.626117997E-1
6.256121751E0,-1.490229964E-1,-3.057479858E-1,5.692530274E-1,6.631279617E-1
6.261132522E0,-1.001380011E-1,-1.917439997E-1,6.143440008E-1,6.513155395E-1
6.266143351E0,-3.808100149E-2,-8.204200119E-2,6.084579825E-1,6.151440231E-1
6.271154351E0,3.279300034E-2,6.459999830E-3,5.277990103E-1,5.288562259E-1
6.276165199E0,7.062999904E-2,5.770099908E-2,3.890329897E-1,3.995806166E-1
6.281176192E0,6.942400336E-2,1.077369973E-1,2.305929959E-1,2.638182757E-1
6.286186964E0,5.339200050E-2,1.589149982E-1,3.581500053E-2,1.714275259E-1
6.291197823E0,-7.782999892E-3,1.951639950E-1,-1.595399976E-1,2.521955013E-1
6.296208823E0,-7.616999745E-2,2.014369965E-1,-3.131870031E-1,3.800852944E-1
6.301219671E0,-1.239819974E-1,1.886530071E-1,-4.091260135E-1,4.672746384E-1
6.306230420E0,-1.358730048E-1,1.904460043E-1,-4.859539866E-1,5.393351751E-1
6.311241418E0,-1.431950033E-1,1.529839933E-1,-5.418649912E-1,5.809703778E-1
6.316252266E0,-1.230420023E-1,1.220000014E-1,-5.795760155E-1,6.049228813E-1
6.321263022E0,-9.490799904E-2,6.240700185E-2,-6.138889790E-1,6.243090906E-1
6.326274020E0,-5.466200039E-2,2.900099941E-2,-5.921940207E-1,5.954181308E-1
6.331284868E0,2.721299976E-2,1.904200017E-2,-5.361919999E-1,5.372196998E-1
6.336295866E0,1.007480025E-1,-2.157399990E-2,-4.510490000E-1,4.626670487E-1
6.341306714E0,1.569419950E-1,-7.809200138E-2,-3.416270018E-1,3.839767686E-1
6.346317712E0,1.825309992E-1,-1.080100015E-1,-1.907030046E-1,2.852216016E-1
6.351328560E0,1.670809984E-1,-1.239359975E-1,-3.118799999E-2,2.103541843E-1
6.356339314E0,9.807500243E-2,-1.334190071E-1,1.326559931E-1,2.121719823E-1
6.361350312E0,2.381400019E-2,-1.422979981E-1,2.367810011E-1,2.772743575E-1
6.366361160E0,-1.127899997E-2,-1.462299973E-1,3.386200070E-1,3.690175295E-1
6.371371930E0,-1.277699973E-2,-1.623169929E-1,4.022830129E-1,4.339835024E-1
6.376382928E0,-4.714999814E-3,-1.486079991E-1,4.210720062E-1,4.465514562E-1
6.381393767E0,-8.046000265E-3,-1.528349966E-1,4.046109915E-1,4.325890992E-1
6.386404536E0,-2.923199907E-2,-1.581989974E-1,3.721570075E-1,4.054408351E-1
6.391415548E0,-7.678399980E-2,-1.482300013E-1,3.096790016E-1,3.518081863E-1
6.396426396E0,-1.336620003E-1,-1.255879998E-1,2.149630040E-1,2.825720600E-1
6.401437409E0,-1.279850006E-1,-7.394400239E-2,1.403989941E-1,2.038620941E-1
6.406448258E0,-8.040499687E-2,1.759400032E-2,5.506499857E-2,9.902861423E-2
6.411459256E0,2.626300044E-2,7.817000151E-2,-1.790600084E-2,8.438553901E-2
6.416470026E0,1.164869964E-1,8.512300253E-2,-1.339129955E-1,1.968447008E-1
6.421480870E0,1.722420007E-1,8.192399889E-2,-2.522360086E-1,3.162306950E-1
6.426491870E0,2.336570024E-1,1.157350019E-1,-3.487370014E-1,4.354396418E-1
6.431502641E0,2.698529959E-1,1.344240010E-1,-4.259920120E-1,5.218808731E-1
6.436513466E0,2.625020146E-1,1.477030069E-1,-4.958640039E-1,5.801763493E-1
6.441524466E0,2.125709951E-1,1.166319996E-1,-5.158799887E-1,5.700189593E-1
6.446535315E0,1.398569942E-1,4.917300120E-2,-5.125929713E-1,5.336005220E-1
6.451546298E0,9.124799818E-2,9.428000078E-3,-4.668259919E-1,4.757537084E-1
6.456557069E0,1.238499954E-2,-1.144999987E-3,-4.091309905E-1,4.093200052E-1
6.461567927E0,-4.273699969E-2,-1.804799959E-2,-3.159610033E-1,3.193486137E-1
6.466578927E0,-7.693299651E-2,-4.577999935E-2,-2.042849958E-1,2.230400273E-1
6.471589684E0,-9.270499647E-2,-4.014800116E-2,-1.166139990E-1,1.542883765E-1
6.476600759E0,-7.840500027E-2,-3.070499934E-2,-1.028760001E-1,1.329421395E-1
6.481611530E0,-3.680099919E-2,-5.855999887E-3,-1.055409983E-1,1.119263534E-1
6.486622605E0,4.792099819E-2,2.270299941E-2,-1.153410003E-1,1.269464241E-1
6.491633377E0,1.377640069E-1,6.672900170E-2,-1.297200024E-1,2.006463563E-1
6.496644213E0,2.491859943E-1,1.124370024E-1,-1.250620037E-1,3.006264194E-1
6.501655211E0,1.949599981E-1,6.106400117E-2,-8.269469738E-1,8.518095507E-1
6.506665992E0,-2.561970055E-1,6.336899847E-2,-2.615308046E0,2.628590632E0
6.511676836E0,-9.386599809E-2,1.082450002E-1,-2.040466070E0,2.045490061E0
6.516687607E0,2.683059871E-1,1.896239966E-1,-1.143869996E0,1.190119293E0
6.521698590E0,6.140400171E-1,4.123429954E-1,-5.350250006E-1,9.128656198E-1
6.526709439E0,6.320549846E-1,4.377329946E-1,-2.447649986E-1,8.068541272E-1
6.531720204E0,3.616630137E-1,2.626760006E-1,-1.936800033E-2,4.474080198E-1
6.536731279E0,1.450950056E-1,6.196499988E-2,7.957100123E-2,1.767024791E-1
6.541742279E0,-2.530599944E-2,-1.529140025E-1,1.905879974E-1,2.456560004E-1
6.546753112E0,-1.728529930E-1,-3.856259882E-1,4.397589862E-1,6.098963240E-1
6.551763881E0,-2.872309983E-1,-5.569279790E-1,7.847769856E-1,1.004263580E0
6.556774650E0,-4.371849895E-1,-6.652110219E-1,1.145907044E0,1.395256024E0
6.561785648E0,-5.522329807E-1,-7.008100152E-1,1.567813993E0,1.803922575E0
6.566796725E0,-5.708410144E-1,-6.647509933E-1,2.037478924E0,2.217898490E0
6.571807497E0,-5.491319895E-1,-6.561089754E-1,2.275566101E0,2.431095640E0
6.576818358E0,-5.989030004E-1,-6.631630063E-1,2.066936970E0,2.251821133E0
6.581829127E0,-8.792669773E-1,-8.219649792E-1,1.578739047E0,1.985233947E0
6.586840125E0,-1.094051957E0,-1.044427037E0,1.009953022E0,1.818731049E0
6.591850973E0,-9.093750119E-1,-9.517670274E-1,2.214049995E-1,1.334857131E0
6.596861966E0,-5.636119843E-1,-6.773740053E-1,-5.112159848E-1,1.018742261E0
6.601872737E0,-3.198130131E-1,-3.329170048E-1,-1.101623058E0,1.194440228E0
6.606883582E0,-2.326460034E-1,1.811099984E-2,-1.554648042E0,1.572063200E0
6.611894567E0,-1.495440006E-1,3.745830059E-1,-1.870959997E0,1.913940215E0
6.616905415E0,-3.947999794E-3,7.062209845E-1,-2.015121937E0,2.135293911E0
