"Time (s)","Linear Acceleration x (m/s^2)","Linear Acceleration y (m/s^2)","Linear Acceleration z (m/s^2)","Absolute acceleration (m/s^2)"
4.389828500E-2,-1.651286006E0,-2.132990062E-1,-4.021300003E-2,1.665490626E0
4.890944100E-2,-1.581220984E0,-2.021750063E-1,-1.713000005E-3,1.594094561E0
5.392082900E-2,-1.510866046E0,-2.170410007E-1,6.097999867E-3,1.526387955E0
5.893213900E-2,-1.456503034E0,-1.983399987E-1,-1.573700085E-2,1.470029760E0
6.394329200E-2,-1.387483954E0,-1.701180041E-1,-6.177100167E-2,1.399238191E0
6.895459800E-2,-1.313691020E0,-1.372209936E-1,-1.197630018E-1,1.326256715E0
7.396598300E-2,-1.258327007E0,-1.210549995E-1,-1.501089931E-1,1.273017628E0
7.897713900E-2,-1.202293038E0,-1.263169944E-1,-1.701190025E-1,1.220821448E0
8.398853000E-2,-1.152557015E0,-1.361790001E-1,-1.731629968E-1,1.173421415E0
8.899984000E-2,-1.106634021E0,-1.602129936E-1,-1.737540066E-1,1.131590701E0
9.401121800E-2,-1.073573947E0,-1.887159944E-1,-1.488389969E-1,1.100148987E0
9.902229600E-2,-1.043797016E0,-1.860249937E-1,-1.570679992E-1,1.071815220E0
1.040334450E-1,-1.012500048E0,-1.856079996E-1,-1.603769958E-1,1.041790505E0
1.090448280E-1,-9.866709709E-1,-1.781619936E-1,-2.028789967E-1,1.022947305E0
1.140561410E-1,-9.661849737E-1,-1.780900061E-1,-2.628389895E-1,1.017012187E0
1.190675250E-1,-9.392330050E-1,-1.733500063E-1,-3.142940104E-1,1.005479780E0
1.240786700E-1,-9.153329730E-1,-1.707569957E-1,-3.042820096E-1,9.795815149E-1
1.290900530E-1,-8.851519823E-1,-1.868409961E-1,-2.531250119E-1,9.394018636E-1
1.341013620E-1,-8.627930284E-1,-1.786440015E-1,-2.129479945E-1,9.064614373E-1
1.391125160E-1,-8.364890218E-1,-1.699600071E-1,-1.462199986E-1,8.660141890E-1
1.441238220E-1,-8.133469820E-1,-1.609349996E-1,-1.000389978E-1,8.351294440E-1
1.491352070E-1,-8.093469739E-1,-1.683910042E-1,-6.215700135E-2,8.290123927E-1
1.541463630E-1,-8.100680113E-1,-1.875849962E-1,-3.233100101E-2,8.321319651E-1
1.591576490E-1,-8.037530184E-1,-2.137749940E-1,-1.031100005E-2,8.317601694E-1
1.641690340E-1,-7.952839732E-1,-2.493070066E-1,2.039399929E-2,8.336944865E-1
1.691801940E-1,-7.732660174E-1,-2.656680048E-1,1.783400029E-2,8.178250877E-1
1.741914990E-1,-7.311120033E-1,-2.725380063E-1,1.685000025E-3,7.802592938E-1
1.792028840E-1,-6.881129742E-1,-2.649939954E-1,1.183999982E-2,7.374696390E-1
1.842140400E-1,-6.302210093E-1,-2.718690038E-1,1.001999946E-3,6.863616246E-1
1.892253460E-1,-5.904060006E-1,-2.597410083E-1,-2.086799964E-2,6.453527023E-1
1.942364820E-1,-5.633699894E-1,-2.407539934E-1,-7.674299926E-2,6.174445062E-1
1.992478650E-1,-5.440480113E-1,-2.291830033E-1,-1.215969995E-1,6.027428290E-1
2.042591750E-1,-5.460519791E-1,-2.368479967E-1,-1.513909996E-1,6.141571233E-1
2.092705520E-1,-5.409449935E-1,-2.397380024E-1,-1.666059941E-1,6.146977738E-1
2.142817080E-1,-5.430240035E-1,-2.353830040E-1,-1.652649939E-1,6.144857567E-1
2.192930040E-1,-5.358039737E-1,-2.163559943E-1,-1.104660034E-1,5.883014129E-1
2.243041600E-1,-5.126339793E-1,-2.066799998E-1,-7.117100060E-2,5.572930382E-1
2.293155420E-1,-4.831489921E-1,-2.041130066E-1,-5.374800041E-2,5.272417999E-1
2.343268570E-1,-4.892140031E-1,-2.274899930E-1,1.202599984E-2,5.396542063E-1
2.393382400E-1,-4.765189886E-1,-2.290409952E-1,7.387799770E-2,5.338427508E-1
2.443493050E-1,-4.688470066E-1,-2.306320071E-1,7.862900198E-2,5.283854258E-1
2.493606870E-1,-4.590280056E-1,-2.302200049E-1,2.102500014E-2,5.139552619E-1
2.543718430E-1,-4.447369874E-1,-2.349860072E-1,-4.393500090E-2,5.049155333E-1
2.593831490E-1,-4.215199947E-1,-2.400979996E-1,-1.069760025E-1,4.967595197E-1
2.643942950E-1,-3.966690004E-1,-2.334800065E-1,-1.495810002E-1,4.839769467E-1
2.694056770E-1,-3.772870004E-1,-2.197649926E-1,-1.654199958E-1,4.669110276E-1
2.744169870E-1,-3.492769897E-1,-2.155890018E-1,-1.623650044E-1,4.414016628E-1
2.794283700E-1,-3.360030055E-1,-2.065729946E-1,-1.548260003E-1,4.237233911E-1
2.844395160E-1,-3.230989873E-1,-2.022829950E-1,-1.476079971E-1,4.087780406E-1
2.894508210E-1,-3.176620007E-1,-2.074220031E-1,-1.291979998E-1,4.007806847E-1
2.944622020E-1,-2.915909886E-1,-1.982280016E-1,-1.323020011E-1,3.765945629E-1
2.994733580E-1,-2.709929943E-1,-1.795279980E-1,-1.399240047E-1,3.539014441E-1
3.044846630E-1,-2.534419894E-1,-1.608179957E-1,-1.381179988E-1,3.304116392E-1
3.094958140E-1,-2.387550026E-1,-1.563590020E-1,-1.178269982E-1,3.087641338E-1
3.145071970E-1,-2.245019972E-1,-1.374559999E-1,-9.810400009E-2,2.809264913E-1
3.195185070E-1,-2.246309966E-1,-1.303389966E-1,-6.976199895E-2,2.689127650E-1
3.245298740E-1,-2.246520072E-1,-1.398569942E-1,-4.683599994E-2,2.687417237E-1
3.295410300E-1,-2.338780016E-1,-1.657560021E-1,1.718799956E-2,2.871748582E-1
3.345523360E-1,-2.381989956E-1,-1.723259985E-1,5.629099905E-2,2.993387510E-1
3.395634780E-1,-2.261099964E-1,-1.787939966E-1,8.519700170E-2,3.005853503E-1
3.445748600E-1,-2.165859938E-1,-1.851190031E-1,1.228509992E-1,3.102755324E-1
3.495861800E-1,-2.071789950E-1,-1.964949965E-1,8.543100208E-2,2.980467677E-1
3.545973340E-1,-2.118159980E-1,-2.343299985E-1,6.087600067E-2,3.216868860E-1
3.596087120E-1,-2.115489990E-1,-2.532399893E-1,2.325600013E-2,3.307934592E-1
3.646200210E-1,-2.042859942E-1,-2.603740096E-1,-8.518000133E-3,3.310588295E-1
3.696311750E-1,-1.834000051E-1,-2.390639931E-1,-4.851200059E-2,3.051893984E-1
3.746425770E-1,-1.677969992E-1,-2.250519991E-1,-6.878399849E-2,2.890250399E-1
3.796538860E-1,-1.550099999E-1,-2.326740026E-1,-9.098500013E-2,2.940128600E-1
3.846650400E-1,-1.448719949E-1,-2.450869977E-1,-9.406200051E-2,2.998386088E-1
3.896763560E-1,-1.372579932E-1,-2.502900064E-1,-9.253700078E-2,3.000798902E-1
3.946877410E-1,-1.275890023E-1,-2.530480027E-1,-8.421699703E-2,2.956429396E-1
3.996988960E-1,-1.088529974E-1,-2.582460046E-1,-9.010100365E-2,2.943775888E-1
4.047102060E-1,-1.069020033E-1,-2.802410126E-1,-1.076830029E-1,3.186827459E-1
4.097216680E-1,-1.003369987E-1,-2.997120023E-1,-8.537799865E-2,3.273899819E-1
4.147329770E-1,-1.009569988E-1,-2.950850129E-1,-5.205899850E-2,3.161923778E-1
4.197441360E-1,-9.225499630E-2,-2.690069973E-1,-6.138300151E-2,2.909357693E-1
4.247552130E-1,-8.618800342E-2,-2.452570051E-1,-4.482999817E-2,2.637974587E-1
4.297665960E-1,-9.887699783E-2,-2.261260003E-1,-1.236900035E-2,2.471085204E-1
4.347779040E-1,-1.133980006E-1,-2.476609945E-1,-1.807300001E-2,2.729866445E-1
4.397892780E-1,-1.205549985E-1,-2.429410070E-1,-3.049499914E-2,2.729171771E-1
4.448004340E-1,-9.058800340E-2,-1.639830023E-1,1.141399983E-2,1.876882809E-1
4.498117160E-1,-5.920999870E-2,-3.470100090E-2,6.216400117E-2,9.259776698E-2
4.548231000E-1,-8.636700362E-2,-1.335499994E-2,7.149999961E-3,8.768544826E-2
4.598342560E-1,-1.357270032E-1,-1.137700025E-2,-5.075500160E-2,1.453524191E-1
4.648455720E-1,-1.601520032E-1,-3.345999867E-2,-9.312699735E-2,1.882574654E-1
4.698569570E-1,-1.629180014E-1,-2.226899937E-2,-1.412830055E-1,2.167926917E-1
4.748681120E-1,-1.561959982E-1,-4.235500097E-2,-1.812040061E-1,2.429527275E-1
4.798794230E-1,-1.773930043E-1,-7.438900322E-2,-1.969700009E-1,2.753165142E-1
4.848905790E-1,-1.724569947E-1,-9.921099991E-2,-2.009360045E-1,2.827711361E-1
4.899019810E-1,-1.608279943E-1,-1.168539971E-1,-2.050250024E-1,2.855796771E-1
4.949132900E-1,-1.241960004E-1,-1.344829947E-1,-1.928710043E-1,2.659126674E-1
4.999246680E-1,-9.116700292E-2,-1.234399974E-1,-1.904260069E-1,2.445627108E-1
5.049358240E-1,-5.705200136E-2,-1.218930036E-1,-1.554200053E-1,2.055923472E-1
5.099471450E-1,-2.427599952E-2,-1.083189994E-1,-1.188910007E-1,1.626573080E-1
5.149585290E-1,3.058199957E-2,-1.116470024E-1,-1.156060025E-1,1.636003046E-1
5.199696950E-1,5.830200016E-2,-1.296249926E-1,-1.562889963E-1,2.112534315E-1
5.249810010E-1,6.437899917E-2,-1.382970065E-1,-2.001129985E-1,2.516265680E-1
5.299921570E-1,5.873800069E-2,-1.808049977E-1,-2.656239867E-1,3.266446115E-1
5.350034670E-1,8.111900091E-2,-1.326809973E-1,-3.055140078E-1,3.428167853E-1
5.400148520E-1,1.098150015E-1,-5.340600014E-2,-2.741189897E-1,3.000879137E-1
5.450260080E-1,1.193450019E-1,9.163999930E-3,-2.501089871E-1,2.772755196E-1
5.500373940E-1,6.162599847E-2,-9.712000377E-3,-2.891680002E-1,2.958212619E-1
5.550487040E-1,1.983300038E-2,-2.141200006E-2,-3.083130121E-1,3.096913546E-1
5.600598580E-1,-8.948000148E-3,-4.015000165E-2,-2.895259857E-1,2.924335578E-1
5.650711640E-1,-2.746699937E-2,-7.548999786E-2,-2.688919902E-1,2.806351336E-1
5.700825480E-1,-4.538400099E-2,-9.402599931E-2,-2.602050006E-1,2.803698244E-1
5.750936900E-1,-5.572300032E-2,-1.220180020E-1,-2.328429967E-1,2.687178942E-1
5.801049960E-1,-6.574600190E-2,-1.427499950E-1,-2.105530053E-1,2.627406818E-1
5.851161570E-1,-4.986000061E-2,-1.826280057E-1,-1.978539973E-1,2.738342791E-1
5.901275390E-1,-1.356600039E-2,-2.009959966E-1,-1.686200052E-1,2.627092179E-1
5.951388440E-1,7.796000224E-3,-2.484990060E-1,3.132640123E-1,3.999335883E-1
6.001499980E-1,1.065499987E-2,-3.473899961E-1,1.286009997E-1,3.705827242E-1
6.051613810E-1,1.157630011E-1,-3.985170126E-1,-3.317660093E-1,5.313055305E-1
6.101727460E-1,1.735399961E-1,-3.432079852E-1,-5.825350285E-1,6.980364680E-1
6.151838250E-1,2.136960030E-1,-2.946699858E-1,-4.985859990E-1,6.173203225E-1
6.201951980E-1,-2.937800065E-2,-3.393090069E-1,-6.309109926E-1,7.169674677E-1
6.252065060E-1,-1.887180060E-1,-2.898750007E-1,-5.551789999E-1,6.541144577E-1
6.302176760E-1,-1.328189969E-1,-1.992149949E-1,-3.910090029E-1,4.584926832E-1
6.352290590E-1,-3.924100101E-2,-2.450570017E-1,-3.682270050E-1,4.440539578E-1
6.402404440E-1,-1.075700019E-2,-3.343949914E-1,-4.684039950E-1,5.756196886E-1
6.452515360E-1,-1.772600040E-2,-4.049459994E-1,-5.764449835E-1,7.046873722E-1
6.502629190E-1,-4.050299898E-2,-4.540100098E-1,-6.225860119E-1,7.716080119E-1
6.552742270E-1,-7.705199718E-2,-4.837560058E-1,-6.136959791E-1,7.852258517E-1
6.602856060E-1,-1.215730011E-1,-5.276190042E-1,-5.952169895E-1,8.046397162E-1
6.652967620E-1,-1.459390074E-1,-5.879889727E-1,-5.579069853E-1,8.235832867E-1
6.703080580E-1,-1.416040063E-1,-6.433789730E-1,-5.140749812E-1,8.356202988E-1
6.753194430E-1,-1.324969977E-1,-7.104970217E-1,-4.474479854E-1,8.500418648E-1
6.803305790E-1,-1.419519931E-1,-7.677770257E-1,-3.795529902E-1,8.681545956E-1
6.853418850E-1,-1.554840058E-1,-8.320609927E-1,-3.380509913E-1,9.114709235E-1
6.903530410E-1,-1.427740008E-1,-9.034569860E-1,-3.151639998E-1,9.674436870E-1
6.953644190E-1,-1.232599989E-1,-9.701449871E-1,-3.404499888E-1,1.035509787E0
7.003757280E-1,-7.960300148E-2,-1.031769991E0,-3.841469884E-1,1.103836428E0
7.053868670E-1,-7.658799738E-2,-1.105350018E0,-4.222880006E-1,1.185745140E0
7.103982500E-1,-4.714899883E-2,-1.181285977E0,-4.597750008E-1,1.268484387E0
7.154095600E-1,-2.004900016E-2,-1.261976004E0,-4.559150040E-1,1.341955248E0
7.204209370E-1,-1.447799988E-2,-1.342622995E0,-4.729700089E-1,1.423568316E0
7.254320930E-1,3.129000077E-3,-1.461503983E0,-4.846700132E-1,1.539775537E0
7.304434760E-1,1.829100028E-2,-1.554028988E0,-5.027959943E-1,1.633445582E0
7.354547800E-1,4.543299973E-2,-1.680001974E0,-5.153779984E-1,1.757863838E0
7.404659340E-1,4.860100150E-2,-1.793954968E0,-5.535780191E-1,1.878053543E0
7.454772300E-1,7.307799906E-2,-1.927003026E0,-5.695919991E-1,2.010750134E0
7.504883860E-1,9.733200073E-2,-2.062377930E0,-5.755550265E-1,2.143394465E0
7.554997680E-1,1.403270066E-1,-2.204874992E0,-5.165359974E-1,2.268914903E0
7.605110780E-1,1.923699975E-1,-2.352103949E0,-3.757790029E-1,2.389688067E0
7.655222420E-1,2.749980092E-1,-2.504061937E0,-2.203879952E-1,2.528739006E0
7.705335480E-1,3.498649895E-1,-2.622457027E0,-5.758300051E-2,2.646318608E0
7.755449320E-1,4.457989931E-1,-2.728820086E0,1.150930002E-1,2.767389058E0
7.805560880E-1,5.341280103E-1,-2.792031050E0,2.687279880E-1,2.855336205E0
7.855674710E-1,6.101729870E-1,-2.812077999E0,3.817139864E-1,2.902722742E0
7.905787800E-1,6.669210196E-1,-2.788944006E0,4.323700070E-1,2.899988989E0
7.955899340E-1,7.069950104E-1,-2.713037968E0,4.205540121E-1,2.835010165E0
8.006013170E-1,7.328460217E-1,-2.622639894E0,3.291650116E-1,2.742927799E0
8.056126270E-1,7.447670102E-1,-2.503369093E0,1.770900041E-1,2.617803580E0
8.106237900E-1,7.261270285E-1,-2.381551027E0,5.009799823E-2,2.490292265E0
8.156350950E-1,6.649010181E-1,-2.250015020E0,-4.247200117E-2,2.346585781E0
8.206464760E-1,5.874119997E-1,-2.108778000E0,-9.584300220E-2,2.191160284E0
8.256576320E-1,5.367349982E-1,-1.972211957E0,-1.026419997E-1,2.046518957E0
8.306689460E-1,4.865469933E-1,-1.845108032E0,-1.106610000E-1,1.911386273E0
8.356801020E-1,4.344559908E-1,-1.734652996E0,-1.050729975E-1,1.791316097E0
8.406917160E-1,3.876399994E-1,-1.614526033E0,-1.454569995E-1,1.666768376E0
8.457028820E-1,3.101519942E-1,-1.525416017E0,-1.121679991E-1,1.560663302E0
8.507141870E-1,2.640340030E-1,-1.424265027E0,-8.136399835E-2,1.450815261E0
8.557253430E-1,2.110030055E-1,-1.327813983E0,-1.558530033E-1,1.353477891E0
8.607367160E-1,1.151309982E-1,-1.231287956E0,-9.642300010E-2,1.240412259E0
8.657480250E-1,5.527599901E-2,-1.103579044E0,-8.938799798E-2,1.108572216E0
8.707591790E-1,7.559000049E-3,-9.395779967E-1,-9.887599945E-2,9.447964933E-1
8.757704810E-1,-4.367699847E-2,-7.586429715E-1,-8.505500108E-2,7.646444871E-1
8.807818660E-1,-1.192879975E-1,-5.726410151E-1,-1.231480017E-1,5.977564628E-1
8.857930210E-1,-2.326460034E-1,-3.791129887E-1,-1.376480013E-1,4.656154995E-1
8.908044040E-1,-3.270640075E-1,-2.069000006E-1,-1.064499989E-1,4.013851984E-1
8.958157140E-1,-4.146179855E-1,-6.802099943E-2,-4.732799903E-2,4.228177737E-1
9.008268530E-1,-4.838339984E-1,2.541399933E-2,8.549399674E-2,4.919862121E-1
9.058381580E-1,-5.419809818E-1,6.374199688E-2,2.855400145E-1,6.159054527E-1
9.108495430E-1,-5.682410002E-1,2.531399950E-2,5.116369724E-1,7.650562230E-1
9.158606890E-1,-6.167590022E-1,-6.586600095E-2,7.633649707E-1,9.835934502E-1
9.208719950E-1,-6.171330214E-1,-2.123430073E-1,1.047194004E0,1.233919771E0
9.258833700E-1,-5.941029787E-1,-3.686110079E-1,1.257876039E0,1.439126316E0
9.308945260E-1,-5.159590244E-1,-5.395669937E-1,1.430148005E0,1.613279137E0
9.359058320E-1,-3.963699937E-1,-6.965929866E-1,1.532755017E0,1.729649937E0
9.409172160E-1,-2.228810042E-1,-8.206779957E-1,1.558632970E0,1.775535145E0
9.459283720E-1,-2.538900077E-2,-8.903819919E-1,1.519512057E0,1.761346526E0
9.509397550E-1,1.952079982E-1,-9.106490016E-1,1.538207054E0,1.798184837E0
9.559510600E-1,3.758780062E-1,-9.504889846E-1,1.293329954E0,1.648458661E0
9.609622130E-1,5.572080016E-1,-9.740740061E-1,1.084879041E0,1.560853439E0
9.659735190E-1,7.537680268E-1,-9.568510056E-1,9.365209937E-1,1.536490044E0
9.709846750E-1,8.715389967E-1,-9.405990243E-1,7.848309875E-1,1.503418247E0
9.759960430E-1,9.534379840E-1,-9.315509796E-1,6.547920108E-1,1.485120801E0
9.810073520E-1,1.003097057E0,-9.247949719E-1,5.526440144E-1,1.472027463E0
9.860185060E-1,9.894390106E-1,-9.104880095E-1,4.428170025E-1,1.415649981E0
9.910298650E-1,9.330859780E-1,-8.884990215E-1,3.511419892E-1,1.335432758E0
9.960412490E-1,8.193870187E-1,-8.801649809E-1,2.422160059E-1,1.226684178E0
1.001052559E0,6.754750013E-1,-8.758789897E-1,1.651829928E-1,1.118354105E0
1.006063699E0,5.347319841E-1,-8.900089860E-1,8.186399937E-2,1.041516205E0
1.011075082E0,3.620800078E-1,-9.057930112E-1,4.322800040E-2,9.764382065E-1
1.016086166E0,1.978369951E-1,-9.280800223E-1,2.225900069E-2,9.491930613E-1
1.021097548E0,4.859999940E-2,-9.592890143E-1,-2.333000069E-3,9.605221579E-1
1.026108933E0,-8.044199646E-2,-1.002604008E0,-3.933399916E-2,1.006594692E0
1.031120247E0,-1.906419992E-1,-1.031486988E0,-4.541099817E-2,1.049939016E0
1.036131400E0,-2.629249990E-1,-1.048349977E0,8.210000233E-4,1.080818163E0
1.041142697E0,-2.950249910E-1,-1.053208947E0,9.458900243E-2,1.097832369E0
1.046154082E0,-2.773920000E-1,-1.055629015E0,2.192309946E-1,1.113265992E0
1.051165228E0,-2.507269979E-1,-1.012542963E0,3.221929967E-1,1.091748875E0
1.056176533E0,-1.517280042E-1,-9.431080222E-1,4.002819955E-1,1.035712221E0
1.061187689E0,-3.354899958E-2,-8.454220295E-1,4.294019938E-1,9.488150587E-1
1.066199072E0,7.564300299E-2,-7.528939843E-1,4.342640042E-1,8.724428009E-1
1.071210456E0,1.831530035E-1,-6.557779908E-1,3.785319924E-1,7.790226346E-1
1.076221761E0,2.637729943E-1,-5.922790170E-1,3.241789937E-1,7.248880234E-1
1.081232915E0,3.346259892E-1,-5.838109851E-1,2.528780103E-1,7.188581968E-1
1.086244221E0,3.890269995E-1,-5.754079819E-1,2.276940048E-1,7.309452180E-1
1.091255392E0,4.389570057E-1,-5.480200052E-1,2.449930012E-1,7.436603725E-1
1.096266774E0,4.659869969E-1,-5.207579732E-1,2.828460038E-1,7.538797051E-1
1.101278084E0,4.824149907E-1,-5.197809935E-1,2.853780091E-1,7.644194611E-1
1.106289495E0,5.001839995E-1,-5.187640190E-1,2.979390025E-1,7.797870158E-1
1.111300651E0,5.215910077E-1,-5.248270035E-1,2.995879948E-1,7.982816104E-1
1.116311957E0,5.560420156E-1,-5.162590146E-1,2.465710044E-1,7.978116027E-1
1.121323357E0,5.754160285E-1,-5.239800215E-1,1.566700041E-1,7.938539910E-1
1.126334513E0,5.782200098E-1,-5.503609776E-1,8.889299631E-2,8.032045507E-1
1.131345895E0,5.349929929E-1,-6.358780265E-1,6.290000165E-4,8.309986538E-1
1.136357195E0,4.381889999E-1,-7.636939883E-1,-6.103999913E-2,8.825893660E-1
1.141368349E0,3.036069870E-1,-9.146159887E-1,-1.015349999E-1,9.690247497E-1
1.146379654E0,1.202159971E-1,-1.053846002E0,-1.171780005E-1,1.067133527E0
1.151390815E0,-5.807299912E-2,-1.164273024E0,-7.348900288E-2,1.168034580E0
1.156402198E0,-2.049950063E-1,-1.279412985E0,-1.831099950E-2,1.295861039E0
1.161413522E0,-3.923209906E-1,-1.382496953E0,7.715199888E-2,1.439154618E0
1.166424675E0,-5.748050213E-1,-1.449597001E0,1.556760073E-1,1.567152608E0
1.171436058E0,-7.311339974E-1,-1.492652059E0,2.342779934E-1,1.678527113E0
1.176447439E0,-8.782430291E-1,-1.504467964E0,3.012009859E-1,1.767896125E0
1.181458748E0,-9.707599878E-1,-1.487403035E0,3.662709892E-1,1.813531687E0
1.186469916E0,-1.020709038E0,-1.422279000E0,4.344750047E-1,1.803744168E0
1.191481222E0,-1.066408038E0,-1.330626965E0,4.842869937E-1,1.772661309E0
1.196492378E0,-1.074342012E0,-1.217211008E0,4.966399968E-1,1.697782284E0
1.201503760E0,-1.030153036E0,-1.072445989E0,4.643740058E-1,1.557882824E0
1.206515145E0,-9.240279794E-1,-9.425849915E-1,3.388879895E-1,1.362768961E0
1.211526455E0,-7.833269835E-1,-7.762889862E-1,1.845670044E-1,1.118164001E0
1.216537609E0,-6.181910038E-1,-6.022319794E-1,-7.695999928E-3,8.630774604E-1
1.221548923E0,-4.614560008E-1,-4.492020011E-1,-1.909079999E-1,6.716918511E-1
1.226560308E0,-2.916699946E-1,-2.671270072E-1,-3.661830127E-1,5.389974235E-1
1.231571464E0,-1.414169967E-1,-1.088590026E-1,-4.993050098E-1,5.302400798E-1
1.236582770E0,2.525000088E-2,2.753400058E-2,-5.592150092E-1,5.604615154E-1
1.241594154E0,1.709389985E-1,1.394650042E-1,-5.734919906E-1,6.144621159E-1
1.246605539E0,3.243550062E-1,2.262510061E-1,-4.758769870E-1,6.187524502E-1
1.251616681E0,4.736790061E-1,2.972500026E-1,-3.413499892E-1,6.551711074E-1
1.256627758E0,5.797690153E-1,3.068000078E-1,-1.376260072E-1,6.702233014E-1
1.261639135E0,6.461380124E-1,2.814010084E-1,6.419499964E-2,7.076735523E-1
1.266650443E0,6.925140023E-1,2.161500007E-1,3.066099882E-1,7.875951695E-1
1.271661599E0,6.799229980E-1,1.309310049E-1,4.681400061E-1,8.358189256E-1
1.276672996E0,6.100819707E-1,-2.161099948E-2,5.888609886E-1,8.481888411E-1
1.281684306E0,4.800939858E-1,-1.909690052E-1,6.957849860E-1,8.666464925E-1
1.286695460E0,3.034639955E-1,-3.984189928E-1,7.873079777E-1,9.331033930E-1
1.291706851E0,1.142909974E-1,-6.150159836E-1,8.547390103E-1,1.059191139E0
1.296718160E0,-1.446080059E-1,-8.117520213E-1,9.129589796E-1,1.230181661E0
1.301729314E0,-4.278280139E-1,-9.627879858E-1,9.406160116E-1,1.412358310E0
1.306740707E0,-7.209280133E-1,-1.096676946E0,9.480940104E-1,1.619049034E0
1.311752017E0,-9.834290147E-1,-1.187168956E0,8.729339838E-1,1.771585871E0
1.316763389E0,-1.201055050E0,-1.265444040E0,7.314910293E-1,1.891814203E0
1.321774545E0,-1.345067978E0,-1.295732021E0,5.184350014E-1,1.938273507E0
1.326785846E0,-1.429983020E0,-1.283022046E0,3.071860075E-1,1.945600229E0
1.331797002E0,-1.390995026E0,-1.231289029E0,5.765800178E-2,1.858565113E0
1.336808413E0,-1.264721036E0,-1.173159957E0,-2.116809934E-1,1.737996670E0
1.341819723E0,-1.053694010E0,-1.114297032E0,-4.149650037E-1,1.588749476E0
1.346830887E0,-7.953320146E-1,-1.010102034E0,-5.619800091E-1,1.403096811E0
1.351842269E0,-4.907070100E-1,-8.997949958E-1,-6.125500202E-1,1.194002484E0
1.356853579E0,-2.127469927E-1,-7.768009901E-1,-5.856900215E-1,9.958483130E-1
1.361864962E0,5.123899877E-2,-6.291469932E-1,-5.722939968E-1,8.520397836E-1
1.366876118E0,3.182339966E-1,-4.526520073E-1,-4.858149886E-1,7.363307134E-1
1.371887413E0,5.563150048E-1,-1.927410066E-1,-3.378149867E-1,6.787889550E-1
1.376898798E0,7.112179995E-1,6.076399982E-2,-2.712450027E-1,7.636079871E-1
1.381909954E0,7.787659764E-1,2.561419904E-1,-2.693969905E-1,8.629367902E-1
1.386921322E0,7.871199846E-1,4.293900132E-1,-2.486069947E-1,9.304510151E-1
1.391932632E0,7.682060003E-1,5.736719966E-1,-2.533310056E-1,9.916736444E-1
1.396943786E0,7.065209746E-1,6.723330021E-1,-2.523570061E-1,1.007416305E0
1.401955106E0,5.985010266E-1,7.160140276E-1,-2.475650012E-1,9.654884756E-1
1.406966490E0,4.452910125E-1,7.141510248E-1,-2.060440034E-1,8.664582525E-1
1.411977875E0,2.363139987E-1,6.648300290E-1,-1.958259940E-1,7.322507039E-1
1.416989045E0,3.121300042E-2,5.586720109E-1,-1.922540069E-1,5.916504630E-1
1.422000350E0,-1.609359980E-1,4.410589933E-1,-1.835349947E-1,5.041017014E-1
1.427011506E0,-3.289940059E-1,3.048470020E-1,-1.789709926E-1,4.829072030E-1
1.432022889E0,-4.876790047E-1,1.689909995E-1,-1.528410017E-1,5.382835139E-1
1.437034209E0,-6.350640059E-1,3.130200133E-2,-1.498930007E-1,6.532641261E-1
1.442045363E0,-7.509179711E-1,-7.449699938E-2,-1.907970011E-1,7.783515259E-1
1.447056754E0,-8.270140290E-1,-1.462240070E-1,-2.304880023E-1,8.708951623E-1
1.452068064E0,-8.718159795E-1,-1.339589953E-1,-2.697530091E-1,9.223745445E-1
1.457079218E0,-8.813989758E-1,-1.549029946E-1,-3.130260110E-1,9.480740350E-1
1.462090538E0,-8.590239882E-1,-1.516460031E-1,-3.697260022E-1,9.474260073E-1
1.467101923E0,-8.868269920E-1,-1.380150020E-1,-4.793159962E-1,1.017474363E0
1.472113079E0,-8.633080125E-1,-1.101579964E-1,-5.055119991E-1,1.006468027E0
1.477124370E0,-8.289960027E-1,-8.266200125E-2,-4.992839992E-1,9.712630389E-1
1.482135525E0,-7.537999749E-1,-4.174299911E-2,-4.428710043E-1,8.752665918E-1
1.487146899E0,-6.571130157E-1,-5.214000121E-2,-3.556599915E-1,7.490060912E-1
1.492158209E0,-6.018990278E-1,-7.571700215E-2,-2.240930051E-1,6.467095013E-1
1.497169363E0,-5.895029902E-1,-1.067179963E-1,-4.429349899E-1,7.450462479E-1
1.502180730E0,-5.509970188E-1,-2.742300034E-1,3.976719975E-1,7.327638277E-1
1.507192040E0,-3.692100048E-1,-2.437600046E-1,1.806830019E-1,4.778925765E-1
1.512203428E0,-2.901139855E-1,-2.948009968E-1,2.103150040E-1,4.640109408E-1
1.517214583E0,-2.297870070E-1,-2.928830087E-1,1.720480025E-1,4.101012564E-1
1.522225889E0,-1.951179951E-1,-2.023929954E-1,1.319579929E-1,3.105589614E-1
1.527237284E0,-7.881300151E-2,-1.145050004E-1,9.251800179E-2,1.669804329E-1
1.532248440E0,1.353559941E-1,-9.361399710E-2,2.167100087E-2,1.659953550E-1
1.537259731E0,2.822589874E-1,-1.499020010E-1,-1.814759970E-1,3.675245344E-1
1.542271116E0,3.992019892E-1,-1.626410037E-1,-8.855000138E-3,4.311527981E-1
1.547282272E0,6.320499778E-1,-1.094219983E-1,3.598900139E-2,6.424605485E-1
1.552293578E0,7.715049982E-1,-7.731299847E-2,-1.991700009E-2,7.756248764E-1
1.557304957E0,8.021730185E-1,-8.773399889E-2,-3.610000014E-2,8.077635892E-1
1.562316113E0,7.738909721E-1,-8.493299782E-2,-1.043540016E-1,7.855002282E-1
1.567327496E0,7.349569798E-1,-5.900999904E-2,-2.214490026E-1,7.698594695E-1
1.572338805E0,6.765549779E-1,-5.586000159E-2,-2.763360143E-1,7.329451348E-1
1.577349959E0,5.717179775E-1,-5.067000166E-2,-4.248049855E-1,7.140645423E-1
1.582361342E0,4.112209976E-1,-1.564580053E-1,2.621000074E-2,4.407593225E-1
1.587372421E0,3.593260050E-1,-1.887719929E-1,1.710239947E-1,4.404534594E-1
1.592383803E0,2.253600061E-1,-2.063820064E-1,-2.449700050E-2,3.065628287E-1
1.597395106E0,-2.248100005E-2,-2.281010002E-1,-2.563369870E-1,3.438664167E-1
1.602406491E0,-1.999109983E-1,-1.840209961E-1,-1.217240021E-1,2.977328785E-1
1.607417880E0,-3.500959873E-1,-6.898599863E-2,-3.114930093E-1,4.736603880E-1
1.612428959E0,-5.250700116E-1,9.020700306E-2,-4.968749881E-1,7.285057133E-1
1.617440342E0,-6.802710295E-1,2.996410131E-1,-6.112899780E-1,9.624078385E-1
1.622451484E0,-7.909449935E-1,4.995209873E-1,-7.500939965E-1,1.199064720E0
1.627462789E0,-8.826640248E-1,7.352030277E-1,-9.568359852E-1,1.495043269E0
1.632474174E0,-9.077090025E-1,9.367780089E-1,-9.880719781E-1,1.636390817E0
1.637485329E0,-8.353679776E-1,1.123597026E0,-8.982489705E-1,1.663478629E0
1.642496712E0,-7.753810287E-1,1.247879982E0,-9.384430051E-1,1.743300164E0
1.647508021E0,-7.080889940E-1,1.293051004E0,-8.187770247E-1,1.686347159E0
1.652519175E0,-5.470960140E-1,1.343037009E0,-5.986549854E-1,1.568900968E0
1.657530558E0,-4.354780018E-1,1.340620041E0,-4.809759855E-1,1.489376072E0
1.662541858E0,-2.988280058E-1,1.128013015E0,-3.708799928E-2,1.167513194E0
1.667553012E0,-1.073890030E-1,8.791720271E-1,1.903199963E-2,8.859108692E-1
1.672564395E0,-5.933399871E-2,5.929660201E-1,9.420400113E-2,6.033271237E-1
1.677575695E0,-1.576399989E-2,3.218379915E-1,1.926800013E-1,3.754381165E-1
1.682586849E0,2.315299958E-2,3.282999992E-2,2.488369942E-1,2.520589613E-1
1.687598250E0,5.038699880E-2,-2.329609990E-1,2.613080144E-1,3.536828454E-1
1.692609560E0,4.066200182E-2,-4.688319862E-1,3.076620102E-1,5.622390436E-1
1.697620714E0,-1.919000037E-2,-6.432989836E-1,2.905589938E-1,7.061348081E-1
1.702632034E0,-6.534899771E-2,-7.675489783E-1,1.760469973E-1,7.901863520E-1
1.707643419E0,-1.123899966E-1,-8.488550186E-1,3.080599941E-2,8.568169954E-1
1.712654575E0,-1.928829998E-1,-8.826860189E-1,-1.268990040E-1,9.123824948E-1
1.717665958E0,-2.803570032E-1,-8.701890111E-1,-2.234099954E-1,9.411381356E-1
1.722677267E0,-3.378730118E-1,-8.092780113E-1,-3.358910084E-1,9.391016139E-1
1.727688421E0,-3.689090014E-1,-7.053809762E-1,-4.322600067E-1,9.058172477E-1
1.732699784E0,-3.537249863E-1,-5.187910199E-1,-5.025489926E-1,8.042518127E-1
1.737711093E0,-3.308759928E-1,-3.030250072E-1,-5.103679895E-1,6.795429069E-1
1.742722476E0,-3.192630112E-1,-4.901799932E-2,-4.878779948E-1,5.851124442E-1
1.747733632E0,-2.974199951E-1,2.046840042E-1,-4.307590127E-1,5.620565114E-1
1.752744928E0,-2.980310023E-1,4.274680018E-1,-3.833769858E-1,6.469383929E-1
1.757756083E0,-2.599279881E-1,6.361129880E-1,-3.191539943E-1,7.576685057E-1
1.762767466E0,-2.189709991E-1,8.164629936E-1,-2.471890002E-1,8.807170489E-1
1.767778781E0,-1.170400009E-1,9.732469916E-1,-1.530299932E-1,9.921321723E-1
1.772789935E0,-2.802999923E-3,1.099249959E0,-6.924200058E-2,1.101432151E0
1.777801307E0,1.302410066E-1,1.189306974E0,-6.215199828E-2,1.198030329E0
1.782812617E0,2.823660076E-1,1.221971989E0,-5.499000102E-2,1.255376439E0
1.787823771E0,4.536849856E-1,1.245152950E0,-5.006799847E-2,1.326175984E0
1.792835168E0,6.180390120E-1,1.242071986E0,-1.048950031E-1,1.391300830E0
1.797846478E0,7.997059822E-1,1.195978999E0,-1.931820065E-1,1.451624852E0
1.802857875E0,3.756658077E0,1.298197031E0,-3.921419978E-1,3.993941761E0
1.807869031E0,3.379890919E0,1.601570964E0,-2.806850076E-1,3.750663441E0
1.812880413E0,1.765925050E0,9.259849787E-1,-1.034178972E0,2.246211390E0
1.817891487E0,7.472360134E-1,6.325489879E-1,-9.854789972E-1,1.389117970E0
1.822902870E0,2.877379954E-1,6.829329729E-1,-9.312289953E-1,1.190116818E0
1.827914192E0,5.611599982E-2,7.325879931E-1,-1.060279965E0,1.289972007E0
1.832925576E0,-8.214800060E-2,7.383760214E-1,-1.080770969E0,1.311492787E0
1.837936952E0,-2.470950037E-1,6.978240013E-1,-1.136392951E0,1.356246002E0
1.842948031E0,-3.598690033E-1,6.706990004E-1,-1.184206009E0,1.407723950E0
1.847959418E0,-3.773329854E-1,6.905170083E-1,-1.212221980E0,1.445225259E0
1.852970574E0,-4.066450000E-1,7.310889959E-1,-1.146036029E0,1.418890361E0
1.857981880E0,-2.653520107E-1,7.901870012E-1,-9.662460089E-1,1.276102871E0
1.862993250E0,-3.840800002E-2,8.513860106E-1,-7.416470051E-1,1.129767053E0
1.868004405E0,1.019999967E-3,8.420000076E-1,-5.046880245E-1,9.816695245E-1
1.873015711E0,-8.271700144E-2,7.616279721E-1,-2.742309868E-1,8.137087344E-1
1.878027106E0,-2.441450059E-1,6.353989840E-1,-1.195959970E-1,6.911163833E-1
1.883038262E0,-3.534069955E-1,5.216090083E-1,-4.818499833E-2,6.318973462E-1
1.888049567E0,-4.447480142E-1,4.189580083E-1,-8.370599896E-2,6.167116856E-1
1.893060937E0,-5.027160048E-1,3.068580031E-1,-2.213899940E-1,6.292048514E-1
1.898072093E0,-5.053840280E-1,2.136539966E-1,-3.517610133E-1,6.517644179E-1
1.903083461E0,-4.567539990E-1,1.338939965E-1,-4.498420060E-1,6.549119393E-1
1.908094771E0,-3.399299979E-1,5.947700143E-2,-4.791969955E-1,5.905249171E-1
1.913105925E0,-1.478839964E-1,-6.489999942E-4,-4.720369875E-1,4.946605050E-1
1.918117231E0,4.980200157E-2,-5.586500093E-2,-4.781549871E-1,4.839765794E-1
1.923128624E0,2.529920042E-1,-1.040560007E-1,-4.599080086E-1,5.351149239E-1
1.928139780E0,4.292559922E-1,-1.355469972E-1,-4.483720064E-1,6.353512032E-1
1.933151163E0,5.748350024E-1,-1.814749986E-1,-4.150570035E-1,7.318748331E-1
1.938162473E0,6.792060137E-1,-2.273489982E-1,-3.790630102E-1,8.103685222E-1
1.943173855E0,7.621889710E-1,-2.422440052E-1,-3.337430060E-1,8.666017423E-1
1.948185021E0,8.058840036E-1,-2.240190059E-1,-2.750380039E-1,8.804995434E-1
1.953196327E0,8.002139926E-1,-1.773409992E-1,-2.219939977E-1,8.491605260E-1
1.958207701E0,7.422450185E-1,-1.302910000E-1,-2.163870037E-1,7.840451183E-1
1.963218780E0,6.106160283E-1,-5.351800099E-2,-2.736369967E-1,6.712624795E-1
1.968230163E0,4.052790105E-1,1.794900000E-2,-4.110220075E-1,5.775052672E-1
1.973241558E0,1.562959999E-1,7.259199768E-2,-5.941159725E-1,6.186047417E-1
1.978252713E0,-9.799800068E-2,1.172389984E-1,-7.639210224E-1,7.790532199E-1
1.983264019E0,-3.067800105E-1,1.635829955E-1,-9.258090258E-1,9.889366630E-1
1.988275146E0,-5.018560290E-1,1.969899982E-1,-1.075687051E0,1.203231966E0
1.993286529E0,-6.978690028E-1,2.072830051E-1,-1.162382007E0,1.371539033E0
1.998297838E0,-8.370460272E-1,1.962540001E-1,-1.199100971E0,1.475467663E0
2.003309207E0,-8.723890185E-1,2.148579955E-1,-1.098356962E0,1.419018877E0
2.008320363E0,-8.558229804E-1,1.862380058E-1,-9.466549754E-1,1.289679499E0
2.013331745E0,-7.776859999E-1,1.577640027E-1,-7.518979907E-1,1.093176831E0
2.018343054E0,-6.516550183E-1,1.247880012E-1,-5.661219954E-1,8.721928811E-1
2.023354208E0,-5.072879791E-1,9.505099803E-2,-4.333600104E-1,6.739263199E-1
2.028365519E0,-3.220770061E-1,9.747599810E-2,-3.337599933E-1,4.739524250E-1
2.033376675E0,-9.730699658E-2,1.270519942E-1,-2.317039967E-1,2.815983006E-1
2.038388057E0,1.589529961E-1,2.005909979E-1,-1.628140062E-1,3.033334865E-1
2.043399442E0,4.182679951E-1,2.615759969E-1,-1.683070064E-1,5.212459748E-1
2.048410751E0,5.881490111E-1,2.965539992E-1,-2.371360064E-1,7.000692960E-1
2.053421886E0,7.459279895E-1,3.317070007E-1,-3.051800132E-1,8.715348187E-1
2.058433192E0,8.412749767E-1,3.764410019E-1,-3.683269918E-1,9.925301946E-1
2.063444362E0,9.624410272E-1,4.447039962E-1,-4.250819981E-1,1.142256136E0
2.068455745E0,1.069561958E0,5.214999914E-1,-4.362480044E-1,1.267374193E0
2.073467069E0,1.126026034E0,5.967890024E-1,-3.958570063E-1,1.334464129E0
2.078478223E0,1.089229941E0,6.349160075E-1,-3.490610123E-1,1.308198682E0
2.083489841E0,9.663749933E-1,6.790369749E-1,-3.005999923E-1,1.218742055E0
2.088500996E0,8.015810251E-1,6.979550123E-1,-2.171529979E-1,1.084817387E0
2.093512302E0,5.864239931E-1,7.112249732E-1,-1.504749954E-1,9.340111276E-1
2.098523478E0,3.289960027E-1,7.141100168E-1,-6.218900159E-2,7.887071433E-1
2.103534861E0,9.517899901E-2,7.184919715E-1,4.755499959E-2,7.263272217E-1
2.108546170E0,-1.044550017E-1,7.321310043E-1,1.154989973E-1,7.485096347E-1
2.113557324E0,-2.643919885E-1,7.366399765E-1,1.289989948E-1,7.932101356E-1
2.118568707E0,-3.812550008E-1,6.849910021E-1,8.759199828E-2,7.888221642E-1
2.123580031E0,-4.749090075E-1,6.087579727E-1,9.146000259E-3,7.721453776E-1
2.128591185E0,-4.996050000E-1,5.177069902E-1,-1.009109989E-1,7.265044484E-1
2.133602568E0,-4.805209935E-1,4.288330078E-1,-2.538860142E-1,6.922833827E-1
2.138613878E0,-4.302980006E-1,3.681530058E-1,-4.096719921E-1,6.989450237E-1
2.143625021E0,-3.449200094E-1,2.972939909E-1,-5.707690120E-1,7.301580616E-1
2.148636404E0,-2.158039957E-1,2.222599983E-1,-6.344670057E-1,7.060589584E-1
2.153647714E0,-5.807299912E-2,1.444520056E-1,-6.196889877E-1,6.389470218E-1
2.158658878E0,1.807750016E-1,1.757040024E-1,-6.114420295E-1,6.613719476E-1
2.163670260E0,3.618220091E-1,1.708250046E-1,-4.317109883E-1,5.886176398E-1
2.168681570E0,5.332279801E-1,2.116380036E-1,-3.068970144E-1,6.506216264E-1
2.173692943E0,6.464530230E-1,2.341710031E-1,-2.261739969E-1,7.238040111E-1
2.178704098E0,7.265599966E-1,2.639330029E-1,-5.517299846E-2,7.749800762E-1
2.183715433E0,7.743769884E-1,3.060939908E-1,8.480100334E-2,8.369853413E-1
2.188726818E0,7.489280105E-1,3.636049926E-1,1.828349978E-1,8.523675216E-1
2.193737974E0,5.614150167E-1,3.929660022E-1,1.261010021E-1,6.967858800E-1
2.198749279E0,8.183900118E-1,5.178650022E-1,7.364899665E-2,9.712726428E-1
2.203760664E0,7.987750173E-1,6.137319803E-1,6.067400053E-2,1.009153014E0
2.208771820E0,6.008409858E-1,7.244290113E-1,-3.542299941E-2,9.418397271E-1
2.213783179E0,4.874620140E-1,8.501719832E-1,-1.709209979E-1,9.947992781E-1
2.218794488E0,4.238390028E-1,9.442589879E-1,-3.142890036E-1,1.081684850E0
2.223805618E0,3.551470041E-1,9.996839762E-1,-4.276250005E-1,1.143835909E0
2.228816924E0,3.102389872E-1,1.045094013E0,-4.895519912E-1,1.195044299E0
2.233828308E0,2.555620074E-1,1.068547010E0,-4.953069985E-1,1.205169563E0
2.238839703E0,2.150419950E-1,1.082072020E0,-4.447090030E-1,1.189491073E0
2.243850782E0,1.840440035E-1,1.083379030E0,-3.758389950E-1,1.161394536E0
2.248862184E0,1.196329966E-1,1.029469967E0,-2.813470066E-1,1.073907168E0
2.253873339E0,2.575399913E-2,9.327769876E-1,-1.853539944E-1,9.513633797E-1
2.258884722E0,-2.585599944E-2,8.954160213E-1,-1.173430011E-1,9.034421752E-1
2.263896032E0,-1.219300032E-1,7.525770068E-1,-4.305500165E-2,7.636051401E-1
2.268907186E0,-8.008799702E-2,6.005349755E-1,-3.042900003E-2,6.066154203E-1
2.273918558E0,-7.846699655E-2,4.515239894E-1,-5.238299817E-2,4.612753636E-1
2.278929868E0,-1.556580067E-1,3.219900131E-1,-5.467399955E-2,3.617958400E-1
2.283941256E0,-3.536200151E-2,1.980939955E-1,-1.172040030E-1,2.328700936E-1
2.288952411E0,9.775900096E-2,3.672499955E-2,-1.730280071E-1,2.020995772E-1
2.293963698E0,2.595210075E-1,-1.810000045E-3,-2.867459953E-1,3.867527573E-1
2.298975083E0,3.541960120E-1,-1.099750027E-1,-2.698509991E-1,4.586598717E-1
2.303986234E0,4.508019984E-1,-1.230989993E-1,-2.504779994E-1,5.302028230E-1
2.308997539E0,6.097339988E-1,-7.495400310E-2,-2.224040031E-1,6.533430894E-1
2.314008695E0,7.691670060E-1,3.256000113E-3,-1.813189983E-1,7.902563279E-1
2.319020073E0,8.920130134E-1,7.547900081E-2,-1.015880033E-1,9.009464013E-1
2.324031383E0,9.122800231E-1,1.491550058E-1,-3.755699843E-2,9.251554380E-1
2.329042765E0,9.047709703E-1,1.796589941E-1,-3.942900151E-2,9.232781320E-1
2.334053926E0,7.982419729E-1,1.911430061E-1,-6.805399805E-2,8.236244549E-1
2.339065232E0,6.371700168E-1,1.765830070E-1,-1.107769981E-1,6.704019182E-1
2.344076616E0,4.647159874E-1,1.717559993E-1,-1.463389993E-1,5.166005952E-1
2.349087781E0,2.812229991E-1,1.622170061E-1,-1.725579947E-1,3.676642406E-1
2.354099087E0,9.624999762E-2,1.597380042E-1,-1.732700020E-1,2.545639127E-1
2.359110458E0,-6.695999950E-2,1.308629960E-1,-1.651889980E-1,2.211247845E-1
2.364121613E0,-1.904100031E-1,8.495999873E-2,-1.109090000E-1,2.361672648E-1
2.369132919E0,-2.821129858E-1,3.152000159E-2,-3.246000037E-2,2.857182159E-1
2.374144318E0,-3.175069988E-1,-3.675600141E-2,8.376900107E-2,3.304223713E-1
2.379155474E0,-4.122129977E-1,-5.393499881E-2,2.968900092E-2,4.167852880E-1
2.384166770E0,-5.216320157E-1,-1.229619980E-1,3.153080046E-1,6.218028229E-1
2.389178155E0,-5.531730056E-1,-2.068829983E-1,4.797770083E-1,7.609119048E-1
2.394189311E0,-5.439910293E-1,-2.887020111E-1,6.384850144E-1,8.870953753E-1
2.399200630E0,-5.302129984E-1,-3.612659872E-1,8.149539828E-1,1.037202454E0
2.404212015E0,-5.374330282E-1,-4.597359896E-1,9.091609716E-1,1.151852904E0
2.409223171E0,-4.861159921E-1,-5.835289955E-1,9.403619766E-1,1.208757831E0
2.414234578E0,-4.105690122E-1,-7.250400186E-1,9.059910178E-1,1.230881662E0
2.419245887E0,-3.653219938E-1,-8.697639704E-1,8.662949800E-1,1.280787459E0
2.424257055E0,-3.244279921E-1,-1.004259944E0,8.337659836E-1,1.344974822E0
2.429268438E0,-3.188189864E-1,-1.130990982E0,7.818499804E-1,1.411409062E0
2.434279733E0,-3.220869899E-1,-1.235623956E0,7.608749866E-1,1.486417618E0
2.439290887E0,-2.910090089E-1,-1.299069047E0,6.988080144E-1,1.503528940E0
2.444302270E0,-2.183900028E-1,-1.371624947E0,5.931509733E-1,1.510257350E0
2.449313665E0,-1.471389979E-1,-1.405501008E0,4.723230004E-1,1.490024156E0
2.454324974E0,-4.136800021E-2,-1.367252946E0,4.748800099E-1,1.447965108E0
2.459336132E0,5.333599821E-2,-1.273669004E0,5.815050006E-1,1.401151500E0
2.464347438E0,1.560080051E-1,-1.117568016E0,7.755010128E-1,1.369196330E0
2.469358822E0,2.402479947E-1,-9.467610121E-1,1.004523993E0,1.401122395E0
2.474369964E0,2.801820040E-1,-8.009719849E-1,1.194473982E0,1.465205163E0
2.479381270E0,3.124809861E-1,-6.556460261E-1,1.374735951E0,1.554803851E0
2.484392655E0,3.326599896E-1,-5.247030258E-1,1.490067005E0,1.614396362E0
2.489403796E0,3.504279852E-1,-4.078249931E-1,1.551802039E0,1.642318656E0
2.494415101E0,2.986350060E-1,-3.859589994E-1,1.524263978E0,1.600477395E0
2.499426501E0,3.044390082E-1,-3.561089933E-1,1.446877003E0,1.520838514E0
2.504437657E0,3.079710007E-1,-3.038649857E-1,1.329980016E0,1.398580319E0
2.509448962E0,3.114989996E-1,-2.963219881E-1,1.209272027E0,1.283424007E0
2.514460347E0,3.079330027E-1,-3.288710117E-1,1.114855051E0,1.202447779E0
2.519471737E0,2.879939973E-1,-4.352630079E-1,1.078336000E0,1.197999565E0
2.524482893E0,2.172829956E-1,-5.559939742E-1,1.142192006E0,1.288776078E0
2.529494183E0,1.620450020E-1,-6.722000241E-1,1.303352952E0,1.475411933E0
2.534505568E0,1.215950027E-1,-7.574149966E-1,1.461794019E0,1.650849652E0
2.539516719E0,8.628799766E-2,-8.232089877E-1,1.534646988E0,1.743634146E0
2.544528024E0,2.834899910E-2,-8.978490233E-1,1.471717954E0,1.724207142E0
2.549539199E0,-4.666399956E-2,-9.403539896E-1,1.286983967E0,1.594606812E0
2.554550582E0,-3.372389972E-1,-9.841830134E-1,1.040101051E0,1.471107250E0
2.559561892E0,-5.632749796E-1,-9.920150042E-1,8.492450118E-1,1.422177753E0
2.564573284E0,-7.413880229E-1,-9.551219940E-1,6.184210181E-1,1.358071714E0
2.569584440E0,-8.539050221E-1,-8.814049959E-1,3.747780025E-1,1.283155137E0
2.574595746E0,-9.263079762E-1,-7.733489871E-1,1.204579994E-1,1.212693388E0
2.579606917E0,-9.624810219E-1,-6.285229921E-1,-1.958760023E-1,1.166095312E0
2.584618299E0,-9.705079794E-1,-4.756709933E-1,-5.548329949E-1,1.214902582E0
2.589629609E0,-9.697449803E-1,-3.101789951E-1,-8.656399846E-1,1.336393998E0
2.594640977E0,-9.097520113E-1,-1.180580035E-1,-1.081962943E0,1.418531009E0
2.599652133E0,-7.664160132E-1,8.343599737E-2,-1.141862035E0,1.377753235E0
2.604663428E0,-5.930979848E-1,2.988049984E-1,-1.124416947E0,1.305895523E0
2.609674813E0,-4.227029979E-1,4.489260018E-1,-1.028890014E0,1.199511167E0
2.614685969E0,-3.012979925E-1,5.289790034E-1,-8.707429767E-1,1.062446515E0
2.619697265E0,-2.437099963E-1,5.270619988E-1,-6.648899913E-1,8.827613570E-1
2.624708650E0,-2.132309973E-1,4.552859962E-1,-4.770340025E-1,6.930470663E-1
2.629719811E0,-1.905480027E-1,3.256900012E-1,-2.946609855E-1,4.787563207E-1
2.634731194E0,-1.892170012E-1,1.456449926E-1,-1.544239968E-1,2.843629867E-1
2.639742503E0,-2.271959931E-1,-7.264299691E-2,-7.827399671E-2,2.510415161E-1
2.644753876E0,-2.731730044E-1,-2.836000025E-1,-4.595400020E-2,3.964394303E-1
2.649765032E0,-3.083789945E-1,-4.919979870E-1,-3.071299940E-2,5.814661743E-1
2.654776322E0,-3.076350093E-1,-6.548219919E-1,-3.699399903E-2,7.244306012E-1
2.659787707E0,-2.652379870E-1,-7.745199800E-1,-7.588200271E-2,8.221863946E-1
2.664798863E0,-1.893929988E-1,-8.583629727E-1,-1.209649965E-1,8.872932048E-1
2.669810193E0,-8.588399738E-2,-8.992609978E-1,-1.744450033E-1,9.200420981E-1
2.674821348E0,1.885199919E-2,-8.876580000E-1,-2.336899936E-1,9.180975634E-1
2.679832746E0,9.250000119E-2,-8.545500040E-1,-3.171080053E-1,9.161710793E-1
2.684844056E0,1.339209974E-1,-8.118420243E-1,-3.916780055E-1,9.112814966E-1
2.689855195E0,1.187300012E-1,-7.570880055E-1,-4.044269919E-1,8.665103884E-1
2.694866577E0,3.482599929E-2,-6.973289847E-1,-3.851589859E-1,7.973882414E-1
2.699877902E0,-1.091369987E-1,-6.132990122E-1,-3.417150080E-1,7.105038420E-1
2.704889285E0,-2.700279951E-1,-4.977869987E-1,-2.932170033E-1,6.377171985E-1
2.709900440E0,-4.292269945E-1,-3.579330146E-1,-2.815670073E-1,6.258049500E-1
2.714911827E0,-6.127070189E-1,-2.271669954E-1,-2.731170058E-1,7.082426375E-1
2.719923137E0,-7.667179704E-1,-1.007509977E-1,-2.862829864E-1,8.245999987E-1
2.724934291E0,-8.483080268E-1,3.785699978E-2,-3.252989948E-1,9.093289266E-1
2.729945664E0,-8.827199936E-1,1.598500013E-1,-4.034180045E-1,9.836120660E-1
2.734956974E0,-8.317440152E-1,3.008480072E-1,-4.848580062E-1,1.008659961E0
2.739968118E0,-7.020919919E-1,4.247060120E-1,-5.532150269E-1,9.896237809E-1
2.744979500E0,-5.232840180E-1,5.193470120E-1,-6.438559890E-1,9.788248143E-1
2.749990796E0,-3.078120053E-1,5.846589804E-1,-6.979039907E-1,9.610641676E-1
2.755001950E0,-9.572599828E-2,6.015319824E-1,-7.302470207E-1,9.509284431E-1
2.760013328E0,1.087279990E-1,5.963339806E-1,-7.320420146E-1,9.504322729E-1
2.765024637E0,2.710779905E-1,5.476729870E-1,-6.945210099E-1,9.250883260E-1
2.770035791E0,4.135800004E-1,4.604119956E-1,-6.047559977E-1,8.653077136E-1
2.775047174E0,1.055317998E0,3.067300022E-1,-4.406639934E-1,1.184045660E0
2.780058484E0,2.358778000E0,4.682539999E-1,-4.419440031E-1,2.445078723E0
2.785069642E0,1.107202053E0,-2.876899950E-2,-3.474169970E-1,1.160785343E0
2.790081025E0,3.453490138E-1,-3.245970011E-1,-3.492200002E-2,4.752354159E-1
2.795092335E0,1.204999979E-3,-4.468219876E-1,2.990460098E-1,5.376614703E-1
2.800103717E0,-1.985130012E-1,-5.681549907E-1,4.340629876E-1,7.420365101E-1
2.805114873E0,-3.185679913E-1,-7.246689796E-1,5.594180226E-1,9.693189460E-1
2.810126256E0,-3.618609905E-1,-8.138030171E-1,5.851730108E-1,1.065667012E0
2.815137335E0,-3.699890077E-1,-8.931210041E-1,5.886629820E-1,1.131848532E0
2.820148726E0,-3.440189958E-1,-9.652069807E-1,5.518550277E-1,1.163837427E0
2.825160034E0,-3.173219860E-1,-1.006235003E0,4.691109955E-1,1.154671924E0
2.830171434E0,-3.083600104E-1,-1.061660051E0,3.811900020E-1,1.169407447E0
2.835182590E0,-1.933230013E-1,-1.078881979E0,2.717219889E-1,1.129244414E0
2.840193972E0,-4.295799881E-2,-1.050694942E0,1.704760045E-1,1.065301516E0
2.845205301E0,-1.010499988E-2,-1.017740011E0,6.526900083E-2,1.019880818E0
2.850216455E0,-4.929900169E-2,-9.991549850E-1,-2.253999934E-2,1.000624369E0
2.855227750E0,-5.878999829E-2,-9.463610053E-1,-8.323399723E-2,9.518315579E-1
2.860239135E0,-3.142400086E-2,-9.033889771E-1,-1.440590024E-1,9.153426177E-1
2.865250291E0,1.552799996E-2,-8.607010245E-1,-1.914079934E-1,8.818641575E-1
2.870261592E0,7.226599753E-2,-8.230940104E-1,-2.282160074E-1,8.571981511E-1
2.875272976E0,1.292860061E-1,-7.905200124E-1,-2.457119972E-1,8.378610546E-1
2.880284132E0,1.866790056E-1,-7.748649716E-1,-2.282059938E-1,8.290613675E-1
2.885295438E0,2.583490014E-1,-7.545970082E-1,-1.861789972E-1,8.190381373E-1
2.890306823E0,2.907389998E-1,-7.581670284E-1,-1.108959988E-1,8.195390970E-1
2.895318207E0,3.267770112E-1,-7.568619847E-1,-3.115399927E-2,8.249811214E-1
2.900329349E0,3.154729903E-1,-7.456700206E-1,5.067000166E-2,8.112425262E-1
2.905340655E0,2.838450074E-1,-7.245309949E-1,1.208359972E-1,7.874734846E-1
2.910352024E0,2.323819995E-1,-6.958280206E-1,1.635300070E-1,7.516116624E-1
2.915363180E0,1.501179934E-1,-6.619709730E-1,1.471370012E-1,6.945432155E-1
2.920374591E0,4.699800164E-2,-6.061509848E-1,1.336629987E-1,6.224898599E-1
2.925385901E0,-7.876700163E-2,-5.307220221E-1,9.968400002E-2,5.457169643E-1
2.930397059E0,-1.805109978E-1,-4.453290105E-1,9.218399972E-2,4.892852314E-1
2.935408365E0,-2.474959940E-1,-3.524990082E-1,8.464500308E-2,4.389471430E-1
2.940419750E0,-2.809650004E-1,-2.427559942E-1,9.561900049E-2,3.834250871E-1
2.945430921E0,-3.004949987E-1,-1.449259967E-1,8.972299844E-2,3.454721482E-1
2.950442226E0,-3.066149950E-1,-3.987300023E-2,9.990999848E-2,3.249378696E-1
2.955453611E0,-3.090110123E-1,6.267199665E-2,7.007300109E-2,3.229950625E-1
2.960464762E0,-2.938480079E-1,1.627179980E-1,5.924800038E-2,3.410778858E-1
2.965476067E0,-2.637059987E-1,2.433969975E-1,2.751100063E-2,3.599163893E-1
2.970487447E0,-2.467979938E-1,3.166629970E-1,-3.166500106E-2,4.027249380E-1
2.975498603E0,-2.261939943E-1,3.488749862E-1,-1.337130070E-1,4.367569659E-1
2.980509909E0,-1.948779970E-1,3.449119925E-1,-2.080280036E-1,4.474565528E-1
2.985521288E0,-8.821599931E-2,3.715969920E-1,-2.296710014E-1,4.456626032E-1
2.990532444E0,5.484699830E-2,4.745090008E-1,-1.836290061E-1,5.117485681E-1
2.995543827E0,8.735000156E-3,4.343569875E-1,-1.649940014E-1,4.647206831E-1
3.000555136E0,-5.631300062E-2,3.755080104E-1,-1.752000004E-1,4.181775461E-1
3.005566300E0,-9.104300290E-2,3.144690096E-1,-2.134660035E-1,3.908290177E-1
3.010577683E0,-1.198770031E-1,2.870520055E-1,-2.557739913E-1,4.027278044E-1
3.015589068E0,-1.315259933E-1,2.764419913E-1,-2.904379964E-1,4.219875487E-1
3.020600132E0,-1.521559954E-1,2.755280137E-1,-3.201520145E-1,4.489592917E-1
3.025611514E0,-1.863760054E-1,2.892509997E-1,-3.195810020E-1,4.696106611E-1
3.030622822E0,-2.431800067E-1,3.131580055E-1,-2.640950084E-1,4.763933517E-1
3.035633964E0,-3.103959858E-1,3.138920069E-1,-1.901769936E-1,4.806673995E-1
3.040645346E0,-3.599309921E-1,3.081929982E-1,-1.053360030E-1,4.854162304E-1
3.045656726E0,-4.180069864E-1,2.915120125E-1,2.034699917E-2,5.100226411E-1
3.050667805E0,-4.728559852E-1,2.733429968E-1,1.301240027E-1,5.614636522E-1
3.055679188E0,-5.175160170E-1,2.249729931E-1,2.313109934E-1,6.098692082E-1
3.060690496E0,-5.244250298E-1,1.869489998E-1,3.335480094E-1,6.490191175E-1
3.065701651E0,-5.131539702E-1,1.304830015E-1,4.252730012E-1,6.791243895E-1
3.070713034E0,-4.724990129E-1,7.705300301E-2,5.279840231E-1,7.127128532E-1
3.075724348E0,-3.800520003E-1,3.586100042E-2,6.044020057E-1,7.148617480E-1
3.080735731E0,-2.671940029E-1,-9.847000241E-3,6.832450032E-1,7.336983938E-1
3.085746877E0,-1.295599937E-1,-6.996099651E-2,7.133499980E-1,7.283876390E-1
3.090758260E0,-9.572000243E-3,-1.326719970E-1,6.984519958E-1,7.110053955E-1
3.095769569E0,8.429100364E-2,-2.025229931E-1,6.956179738E-1,7.293866612E-1
3.100780723E0,1.621430069E-1,-2.769840062E-1,6.998249888E-1,7.699126635E-1
3.105792106E0,2.455220073E-1,-3.512519896E-1,7.062590122E-1,8.261118621E-1
3.110803401E0,2.994099855E-1,-4.229069948E-1,6.986539960E-1,8.698356579E-1
3.115814555E0,3.525080085E-1,-4.850150049E-1,6.612600088E-1,8.926176394E-1
3.120825918E0,3.883019984E-1,-4.993140101E-1,6.349390149E-1,8.962368411E-1
3.125837228E0,3.817290068E-1,-4.847710133E-1,6.268069744E-1,8.795492897E-1
3.130848610E0,3.478749990E-1,-4.414249957E-1,6.157749891E-1,8.336977144E-1
3.135859981E0,2.851229906E-1,-3.768149912E-1,5.532829762E-1,7.276034010E-1
3.140871060E0,2.220730036E-1,-2.893399894E-1,3.989099860E-1,5.405212534E-1
3.145882442E0,1.655309945E-1,-2.004529983E-1,2.642660141E-1,3.706999337E-1
3.150893583E0,1.244100034E-1,-8.880399913E-2,1.158989966E-1,1.918243379E-1
3.155904889E0,7.013399899E-2,1.743499935E-2,2.111200057E-2,7.528926607E-2
3.160916270E0,3.316700086E-2,1.092299968E-1,-1.049099956E-2,1.146355234E-1
3.165927425E0,1.277999952E-3,1.748960018E-1,-2.551499940E-2,1.767519729E-1
3.170938731E0,-2.453000052E-3,2.531499863E-1,1.956799999E-2,2.539169931E-1
3.175950091E0,-2.296799980E-2,3.088429868E-1,1.249900013E-1,3.339670941E-1
3.180961247E0,-4.569999874E-2,3.568640053E-1,2.844409943E-1,4.586361165E-1
3.185972557E0,-3.339599818E-2,3.949399889E-1,4.709950089E-1,6.155722427E-1
3.190983942E0,1.552900020E-2,4.324460030E-1,6.541420221E-1,7.843165690E-1
3.195995108E0,1.073580012E-1,4.493989944E-1,7.455480099E-1,8.771128956E-1
3.201006490E0,1.735509932E-1,4.384930134E-1,8.084030151E-1,9.359014397E-1
3.206017800E0,2.195689976E-1,3.970899880E-1,8.295480013E-1,9.455373550E-1
3.211029188E0,2.854230106E-1,3.461509943E-1,7.985290289E-1,9.159341766E-1
3.216040344E0,3.658519983E-1,3.043240011E-1,7.309070230E-1,8.721730668E-1
3.221051658E0,4.163300097E-1,2.548319995E-1,6.486110091E-1,8.117673719E-1
3.226062814E0,4.447720051E-1,1.685180068E-1,4.932450056E-1,6.852087935E-1
3.231074197E0,4.516600072E-1,7.633300126E-2,3.178850114E-1,5.575610906E-1
3.236085517E0,4.538460076E-1,-9.507999755E-3,1.647949964E-1,4.829326987E-1
3.241096899E0,4.395999908E-1,-6.751900166E-2,1.011000015E-2,4.448698457E-1
3.246108055E0,3.956489861E-1,-1.452129930E-1,-1.372399926E-1,4.432378020E-1
3.251119356E0,3.390299976E-1,-1.965699941E-1,-2.332369983E-1,4.560489000E-1
3.256130512E0,2.861370146E-1,-2.211070061E-1,-2.840859890E-1,4.598560084E-1
3.261141879E0,2.900399864E-1,-2.250490040E-1,-2.234659940E-1,4.297758699E-1
3.266153189E0,2.654669881E-1,-2.409390062E-1,-9.160900116E-2,3.700223447E-1
3.271164572E0,2.203020006E-1,-2.498749942E-1,1.681499928E-2,3.335464411E-1
3.276175703E0,1.551090032E-1,-2.617889941E-1,8.632200211E-2,3.162969623E-1
3.281187086E0,1.911029965E-1,-2.228800058E-1,9.983500093E-2,3.101014022E-1
3.286198396E0,1.652799994E-1,-1.905760020E-1,8.917099983E-2,2.675596344E-1
3.291209560E0,1.118860021E-1,-1.645960063E-1,9.220600128E-2,2.193450921E-1
3.296220865E0,4.791599885E-2,-1.194090024E-1,3.903900087E-2,1.344562991E-1
3.301232035E0,2.709699981E-2,-8.158300072E-2,-2.474300005E-2,8.945529306E-2
3.306243418E0,-1.203100011E-2,-5.605899915E-2,-1.010489985E-1,1.161819971E-1
3.311254753E0,-4.106700048E-2,-3.755899891E-2,-1.336700022E-1,1.447924253E-1
3.316265906E0,-4.416900128E-2,-4.242400080E-2,-1.237339973E-1,1.380608511E-1
3.321277289E0,-1.968800090E-2,-7.020600140E-2,-7.712399960E-2,1.061348733E-1
3.326288679E0,5.029600114E-2,-1.139620021E-1,-4.145399854E-2,1.312838895E-1
3.331299988E0,1.481200010E-1,-1.757819951E-1,2.559199929E-2,2.312872562E-1
3.336311152E0,2.081370056E-1,-2.581650019E-1,6.486699730E-2,3.379022175E-1
3.341322535E0,3.847070038E-1,-3.622860014E-1,3.243499994E-2,5.294361669E-1
3.346333845E0,4.657039940E-1,-4.852119982E-1,1.182200015E-2,6.726445220E-1
3.351345226E0,4.817860126E-1,-6.340039968E-1,-3.022200055E-2,7.968639779E-1
3.356356382E0,5.298200250E-1,-7.591279745E-1,-1.069800034E-1,9.318955208E-1
3.361367688E0,5.622370243E-1,-8.794839978E-1,-1.710020006E-1,1.057754347E0
3.366378844E0,5.699949861E-1,-9.541479945E-1,-2.010969967E-1,1.129483369E0
3.371390226E0,5.512239933E-1,-9.588050246E-1,-1.691370010E-1,1.118821832E0
3.376401536E0,5.273270011E-1,-9.076820016E-1,-9.928300232E-2,1.054427568E0
3.381412934E0,5.100280046E-1,-7.682610154E-1,-3.291499987E-2,9.227334125E-1
3.386424089E0,4.967319965E-1,-5.698729753E-1,2.852600068E-2,7.565128004E-1
3.391435472E0,4.689750075E-1,-3.274979889E-1,7.417199761E-2,5.767963035E-1
3.396446782E0,4.250929952E-1,-8.502600342E-2,6.228400022E-2,4.379643507E-1
3.401457936E0,3.727129996E-1,1.507440060E-1,7.588999718E-2,4.091430399E-1
3.406469318E0,3.239609897E-1,3.842419982E-1,5.802400038E-2,5.059243230E-1
3.411480618E0,2.790769935E-1,5.707349777E-1,6.243899837E-2,6.383737241E-1
3.416491772E0,2.174070030E-1,6.986190081E-1,5.747300014E-2,7.339192525E-1
3.421503067E0,1.814990044E-1,7.748010159E-1,7.501999848E-3,7.958107707E-1
3.426514452E0,1.406539977E-1,7.830799818E-1,-4.289399832E-2,7.967670300E-1
3.431525599E0,1.091499999E-1,7.260590196E-1,-1.156530008E-1,7.432705019E-1
3.436536905E0,6.805799901E-2,5.926849842E-1,-1.715259999E-1,6.207483793E-1
3.441548289E0,5.003900081E-2,4.266700149E-1,-2.044319957E-1,4.757558660E-1
3.446559435E0,3.803599998E-2,2.359289974E-1,-2.131270021E-1,3.202067272E-1
3.451570818E0,1.530599967E-2,5.686299875E-2,-1.887650043E-1,1.977369492E-1
3.456582127E0,5.228000227E-3,-1.147319973E-1,-1.250360012E-1,1.697785757E-1
3.461593281E0,-3.446500003E-2,-2.883949876E-1,-6.966199726E-2,2.986842797E-1
3.466604664E0,-9.606999904E-2,-4.356110096E-1,-1.261399966E-2,4.462572233E-1
3.471615998E0,-1.280129999E-1,-5.613160133E-1,4.391999915E-2,5.774010403E-1
3.476627152E0,-1.429910064E-1,-6.415899992E-1,1.358799934E-1,6.712283722E-1
3.481638534E0,-1.506869942E-1,-6.676989794E-1,2.047300041E-1,7.144528479E-1
3.486649859E0,-1.489630044E-1,-6.517429948E-1,3.009530008E-1,7.331654770E-1
3.491661241E0,-1.147719994E-1,-6.043239832E-1,3.589499891E-1,7.121974327E-1
3.496672397E0,-9.309399873E-2,-5.356630087E-1,3.844389915E-1,6.658788852E-1
3.501683712E0,-6.042699888E-2,-4.159770012E-1,3.623870015E-1,5.549888527E-1
3.506695097E0,-1.031399984E-2,-2.738659978E-1,3.762370050E-1,4.654709951E-1
3.511706234E0,3.579900041E-2,-1.647939980E-1,3.283819854E-1,3.691522160E-1
3.516717616E0,6.185499951E-2,-5.792399868E-2,2.526539862E-1,2.664868990E-1
3.521728926E0,1.080219969E-1,4.158399999E-2,1.446180046E-1,1.852359256E-1
3.526740080E0,1.392560005E-1,1.216769964E-1,9.161000140E-3,1.851525021E-1
3.531751462E0,2.026759982E-1,1.446810067E-1,-1.354939938E-1,2.834938735E-1
3.536762777E0,2.514230013E-1,1.162450016E-1,-2.664850056E-1,3.843705038E-1
3.541774160E0,3.253340125E-1,4.200299829E-2,-3.706130087E-1,4.949348177E-1
3.546785335E0,4.351550043E-1,-4.403200001E-2,-4.438189864E-1,6.231163515E-1
3.551796640E0,4.681720138E-1,-1.642840058E-1,-4.423350096E-1,6.647063485E-1
3.556807796E0,4.312070012E-1,-3.055849969E-1,-3.818170130E-1,6.520014568E-1
3.561819179E0,4.906600118E-1,-3.621029854E-1,-3.558849990E-1,7.060594534E-1
3.566830497E0,5.436909795E-1,-3.913860023E-1,-3.117100000E-1,7.388815927E-1
3.571841651E0,4.908910096E-1,-4.004679918E-1,-2.444369942E-1,6.790420016E-1
3.576853030E0,4.048979878E-1,-4.113860130E-1,-2.060620040E-1,6.128967138E-1
3.581864340E0,2.982569933E-1,-4.099439979E-1,-1.748380065E-1,5.362645280E-1
3.586875722E0,1.113599986E-1,-4.179350138E-1,-1.766680032E-1,4.672069224E-1
3.591886887E0,-6.292299926E-2,-4.037770033E-1,-1.427450031E-1,4.328640758E-1
3.596898193E0,-1.879940033E-1,-3.725399971E-1,-1.135009974E-1,4.324468420E-1
3.601909572E0,-2.980690002E-1,-3.030900061E-1,-7.414600253E-2,4.315162922E-1
3.606920957E0,-4.029209912E-1,-2.431560010E-1,-3.680299968E-2,4.720430348E-1
3.611932113E0,-4.889270067E-1,-1.688890010E-1,1.772999950E-2,5.175784631E-1
3.616943405E0,-5.567200184E-1,-8.116099983E-2,3.774600103E-2,5.638697078E-1
3.621954560E0,-5.973899961E-1,-3.262300044E-2,2.558200061E-2,5.988267749E-1
3.626965943E0,-6.719890237E-1,-3.926999867E-3,9.778000414E-3,6.720716320E-1
3.631977258E0,-6.911609769E-1,-1.401500031E-2,-1.956300065E-2,6.915798054E-1
3.636988412E0,-7.098559737E-1,-4.785099998E-2,-2.967100032E-2,7.120853810E-1
3.641999789E0,-7.232019901E-1,-1.126800030E-1,-7.072199881E-2,7.353363195E-1
3.647011099E0,-7.217890024E-1,-1.987790018E-1,-1.309140027E-1,7.600203495E-1
3.652022243E0,-7.060469985E-1,-2.868900001E-1,-1.888580024E-1,7.851595897E-1
3.657033625E0,-6.186239719E-1,-3.270649910E-1,-2.228779942E-1,7.343988884E-1
3.662044935E0,-4.896259904E-1,-3.365390003E-1,-2.541370094E-1,6.462025446E-1
3.667056079E0,-3.784579933E-1,-3.441559970E-1,-2.920660079E-1,5.890469896E-1
3.672067462E0,-2.617979944E-1,-3.002290130E-1,-3.074499965E-1,5.031909681E-1
3.677078771E0,-1.564300060E-1,-2.290689945E-1,-3.190830052E-1,4.227965412E-1
3.682089911E0,-6.217600033E-2,-1.164909974E-1,-2.933009863E-1,3.216542803E-1
3.687101217E0,4.214600101E-2,2.759999968E-2,-2.513619959E-1,2.563608753E-1
3.692112597E0,1.148059964E-1,1.859329939E-1,-2.213830054E-1,3.110657971E-1
3.697123752E0,1.383389980E-1,3.301280141E-1,-1.916339993E-1,4.060120365E-1
3.702135154E0,1.212870032E-1,4.485650063E-1,-1.599889994E-1,4.914443833E-1
3.707146539E0,8.378800005E-2,5.446630120E-1,-9.151700139E-2,5.586175679E-1
3.712157853E0,4.754300043E-2,5.958660245E-1,2.440099977E-2,5.982575238E-1
3.717169007E0,-3.480999963E-3,6.034010053E-1,1.890120059E-1,6.323214601E-1
3.722180390E0,-7.339700311E-2,5.330309868E-1,4.031609893E-1,6.723451020E-1
3.727191710E0,-1.753609926E-1,3.924820125E-1,5.970469713E-1,7.357028570E-1
3.732202863E0,-3.036090136E-1,1.729220003E-1,7.748820186E-1,8.500132905E-1
3.737214169E0,-4.062440097E-1,-8.713699877E-2,9.365059733E-1,1.024534280E0
3.742225549E0,-4.769189954E-1,-3.729569912E-1,1.117539048E0,1.271000460E0
3.747236705E0,-4.725979865E-1,-6.494089961E-1,1.266039968E0,1.499312543E0
3.752248082E0,-4.351159930E-1,-8.700000048E-1,1.388108015E0,1.695013214E0
3.757259392E0,-3.911870122E-1,-1.024497986E0,1.459059954E0,1.825234053E0
3.762270546E0,-3.784979880E-1,-1.100733042E0,1.454601049E0,1.862991725E0
3.767281923E0,-3.523769975E-1,-1.088629961E0,1.395452023E0,1.804597209E0
3.772293233E0,-3.249920011E-1,-1.018457055E0,1.251749039E0,1.646131899E0
3.777304387E0,-2.779479921E-1,-8.673980236E-1,1.100849032E0,1.428811748E0
3.782315789E0,-2.095520049E-1,-6.718850136E-1,9.382460117E-1,1.172879829E0
3.787327098E0,-6.470499933E-2,-4.256480038E-1,7.476779819E-1,8.627776797E-1
3.792338481E0,2.426099963E-2,-2.108850032E-1,6.068149805E-1,6.428728500E-1
3.797349623E0,1.123329997E-1,-7.180000190E-3,5.336700082E-1,5.454117095E-1
3.802360929E0,2.136690021E-1,1.741960049E-1,4.869419932E-1,5.595633971E-1
3.807372084E0,3.048470020E-1,3.201529980E-1,4.990960062E-1,6.667281756E-1
3.812383467E0,4.098240137E-1,4.495260119E-1,4.914329946E-1,7.820075101E-1
3.817394777E0,4.772979915E-1,5.294190049E-1,4.898619950E-1,8.649061392E-1
3.822406159E0,4.920369983E-1,5.670790076E-1,4.633170068E-1,8.822367354E-1
3.827417310E0,5.135579705E-1,5.802670121E-1,3.411490023E-1,8.466606382E-1
3.832428616E0,5.553309917E-1,5.921710134E-1,1.837610006E-1,8.323623759E-1
3.837440001E0,5.722200274E-1,5.929750204E-1,3.357999958E-3,8.240548591E-1
3.842451146E0,5.602189898E-1,5.849879980E-1,-1.927359998E-1,8.325883977E-1
3.847462452E0,5.292969942E-1,5.663970113E-1,-3.595030010E-1,8.545193328E-1
3.852473847E0,5.032969713E-1,5.684620142E-1,-5.018209815E-1,9.100995552E-1
3.857485003E0,4.565109909E-1,5.916079879E-1,-6.056280136E-1,9.618667200E-1
3.862496308E0,3.619210124E-1,6.193689704E-1,-6.973919868E-1,1.000480047E0
3.867507693E0,2.906740010E-1,6.636509895E-1,-7.818400264E-1,1.065925812E0
3.872518873E0,1.702229977E-1,7.295550108E-1,-8.471890092E-1,1.130909192E0
3.877530178E0,5.792599916E-2,7.908179760E-1,-9.197810292E-1,1.214391055E0
3.882541563E0,-5.100800097E-2,8.576030135E-1,-9.642019868E-1,1.291421781E0
3.887552719E0,-1.425279975E-1,9.155060053E-1,-1.030640006E0,1.385887549E0
3.892564102E0,-2.379360050E-1,9.812899828E-1,-1.095119953E0,1.489574196E0
3.897575411E0,-3.321729898E-1,1.022346020E0,-1.139256954E0,1.566345009E0
3.902586794E0,-3.716759980E-1,1.051067948E0,-1.173038006E0,1.618303137E0
3.907597935E0,-3.996270001E-1,1.059988022E0,-1.239241958E0,1.678986890E0
3.912609240E0,-4.022890031E-1,1.056239963E0,-1.313887000E0,1.733141180E0
3.917620625E0,-4.081839919E-1,1.028200984E0,-1.394866943E0,1.780299195E0
3.922631695E0,-3.871060014E-1,9.912080169E-1,-1.425714016E0,1.779046049E0
3.927643078E0,-3.515430093E-1,9.318360090E-1,-1.419337988E0,1.733903446E0
3.932654210E0,-2.834550142E-1,8.625270128E-1,-1.390665054E0,1.660797666E0
3.937665823E0,-2.117719948E-1,7.812730074E-1,-1.352115035E0,1.575896557E0
3.942676979E0,-1.366170049E-1,6.834449768E-1,-1.311100006E0,1.484838196E0
3.947688298E0,-8.614700288E-2,5.673099756E-1,-1.258772016E0,1.383390365E0
3.952699454E0,-5.052400008E-2,4.454550147E-1,-1.176687002E0,1.259196230E0
3.957710837E0,-1.793400012E-2,3.185769916E-1,-1.063269019E0,1.110114379E0
3.962722157E0,2.305600047E-2,2.141239941E-1,-8.743230104E-1,9.004562125E-1
3.967733311E0,5.369799957E-2,1.229899973E-1,-6.438909769E-1,6.577276068E-1
3.972744616E0,8.350899816E-2,3.326300159E-2,-4.031809866E-1,4.130800020E-1
3.977756001E0,1.218030006E-1,-3.893699870E-2,-1.683090031E-1,2.113763973E-1
3.982767157E0,1.474190056E-1,-8.254499733E-2,4.494300112E-2,1.748310989E-1
3.987778462E0,1.443520039E-1,-1.062709987E-1,1.975599974E-1,2.667601522E-1
3.992789851E0,1.386989951E-1,-1.246519983E-1,3.495660126E-1,3.961968313E-1
3.997801007E0,1.164529994E-1,-1.458600014E-1,4.493960142E-1,4.866140346E-1
4.002812414E0,8.940400183E-2,-1.440639943E-1,5.406389832E-1,5.666021710E-1
4.007823798E0,4.352299869E-2,-1.526450068E-1,6.447499990E-1,6.640009870E-1
4.012834877E0,3.380000126E-4,-1.553409994E-1,7.311429977E-1,7.474630583E-1
4.017846250E0,-2.397600003E-2,-1.733970046E-1,8.330140114E-1,8.512072092E-1
4.022857558E0,-5.757699907E-2,-2.023790032E-1,9.005140066E-1,9.247690781E-1
4.027868942E0,-7.685700059E-2,-2.192029953E-1,9.368749857E-1,9.652417783E-1
4.032880113E0,-1.005199999E-1,-2.597619891E-1,9.445160031E-1,9.847289178E-1
4.037891496E0,-1.050280035E-1,-2.936969995E-1,9.121749997E-1,9.640290655E-1
4.042902790E0,-8.150900155E-2,-3.327730000E-1,8.922590017E-1,9.557759743E-1
4.047914173E0,-5.381400138E-2,-3.702909946E-1,8.421490192E-1,9.215347731E-1
4.052925334E0,-1.488799974E-2,-4.178769886E-1,8.045709729E-1,9.067399190E-1
4.057936639E0,2.798100002E-2,-4.756200016E-1,7.508789897E-1,8.892786849E-1
4.062947800E0,7.704100013E-2,-5.388690233E-1,6.763979793E-1,8.682334746E-1
4.067959183E0,1.182060018E-1,-6.031500101E-1,5.766350031E-1,8.427754863E-1
4.072970493E0,1.469520032E-1,-6.775410175E-1,4.918090105E-1,8.500193083E-1
4.077981631E0,1.704600006E-1,-7.406330109E-1,4.052760005E-1,8.613027953E-1
4.082993014E0,1.494199932E-1,-7.708590031E-1,3.505739868E-1,8.599139824E-1
4.088004324E0,1.244259998E-1,-7.877449989E-1,2.706100047E-1,8.421720652E-1
4.093015450E0,6.550599635E-2,-7.517070174E-1,1.736070067E-1,7.742698937E-1
4.098026832E0,1.307700016E-2,-6.775599718E-1,8.387699723E-2,6.828571403E-1
4.103038142E0,-3.771699965E-2,-5.564990044E-1,-1.226499956E-2,5.579105162E-1
4.108049301E0,-9.389100224E-2,-3.891870081E-1,-1.022669971E-1,4.132076794E-1
4.113060607E0,-1.204539984E-1,-1.996899992E-1,-1.884489954E-1,2.998304277E-1
4.118071991E0,-1.460130066E-1,-7.340999786E-3,-2.897799909E-1,3.245706880E-1
4.123083147E0,-1.683540046E-1,1.834219992E-1,-3.778530061E-1,4.525036960E-1
4.128094554E0,-1.735980064E-1,3.626349866E-1,-5.025600195E-1,6.435891349E-1
4.133105863E0,-1.505730003E-1,5.259879827E-1,-6.188790202E-1,8.260428730E-1
4.138117236E0,-1.186780035E-1,6.667309999E-1,-7.367449999E-1,1.000703697E0
4.143128392E0,-8.984900266E-2,7.643100023E-1,-8.354820013E-1,1.135901755E0
4.148139698E0,-6.166899949E-2,8.331090212E-1,-9.533579946E-1,1.267582412E0
4.153151073E0,-7.376699895E-2,8.412340283E-1,-1.034345984E0,1.335285691E0
4.158162229E0,-9.939599782E-2,8.253459930E-1,-1.086303949E0,1.367893213E0
4.163173535E0,-1.128360033E-1,7.484740019E-1,-1.103343964E0,1.338025858E0
4.168184919E0,-1.098510027E-1,6.570259929E-1,-1.074471951E0,1.264215318E0
4.173196075E0,-1.353050023E-1,5.611280203E-1,-1.012186050E0,1.165200712E0
4.178207381E0,-1.906200051E-1,4.251660109E-1,-9.645860195E-1,1.071227479E0
4.183218766E0,-2.168630064E-1,2.733939886E-1,-9.057710171E-1,9.706672818E-1
4.188229921E0,-2.868030071E-1,1.036550030E-1,-8.574370146E-1,9.100541514E-1
4.193241299E0,-3.642970026E-1,-4.695300013E-2,-8.614889979E-1,9.365255917E-1
4.198252609E0,-3.240740001E-1,-1.513939947E-1,-7.825480103E-1,8.604216918E-1
4.203263739E0,-2.575039864E-1,-2.350859940E-1,-7.699599862E-1,8.452290269E-1
4.208275121E0,-2.417889982E-1,-3.447360098E-1,-7.337989807E-1,8.460294204E-1
4.213286431E0,-2.244759947E-1,-4.354389906E-1,-7.166000009E-1,8.680507750E-1
4.218297609E0,-2.312590033E-1,-5.054150224E-1,-7.177109718E-1,9.077632459E-1
4.223308991E0,-2.289630026E-1,-5.590909719E-1,-6.848599911E-1,9.132578928E-1
4.228320306E0,-2.180339992E-1,-5.911689997E-1,-6.042230129E-1,8.729862887E-1
4.233331689E0,-2.080170065E-1,-5.987030268E-1,-4.643549919E-1,7.857111096E-1
4.238342845E0,-1.688069999E-1,-5.675140023E-1,-2.747139931E-1,6.527141212E-1
4.243354159E0,-9.180600196E-2,-4.938440025E-1,-8.700499684E-2,5.097843762E-1
4.248365544E0,-8.190000430E-3,-4.209110141E-1,1.132899970E-1,4.359676379E-1
4.253376681E0,8.219099790E-2,-3.446089923E-1,2.909710109E-1,4.584483034E-1
4.258388063E0,1.537739933E-1,-2.940570116E-1,4.249669909E-1,5.391779952E-1
4.263399358E0,1.909029931E-1,-2.622709870E-1,5.347120166E-1,6.254174319E-1
4.268410512E0,2.202489972E-1,-2.356870025E-1,5.922750235E-1,6.744239671E-1
4.273421919E0,2.140399963E-1,-2.095829993E-1,6.456410289E-1,7.117517066E-1
4.278433228E0,1.873279959E-1,-1.971070021E-1,6.002389789E-1,6.589611370E-1
4.283444382E0,1.567810029E-1,-1.863670051E-1,5.326769948E-1,5.857112977E-1
4.288455765E0,1.156020015E-1,-1.802189946E-1,4.122759998E-1,4.645580790E-1
4.293467075E0,4.318900034E-2,-1.439930052E-1,2.258480042E-1,2.713053562E-1
4.298478224E0,-3.904999932E-3,-9.314099699E-2,-2.808699943E-2,9.736207620E-2
4.303489530E0,-4.038799927E-2,-2.257799916E-2,-2.517449856E-1,2.559619001E-1
4.308500910E0,-5.536299944E-2,4.801400006E-2,-3.727320135E-1,3.798678188E-1
4.313512066E0,-4.024700075E-2,8.651799709E-2,-4.354619980E-1,4.457940518E-1
4.318523448E0,1.670000027E-3,1.012879983E-1,-4.458679855E-1,4.572311319E-1
4.323534748E0,6.974600255E-2,7.453999668E-2,-4.219950140E-1,4.341664517E-1
4.328546131E0,1.146470010E-1,3.814499825E-2,-3.525049984E-1,3.726375580E-1
4.333557291E0,1.789910048E-1,-2.425399981E-2,-2.784650028E-1,3.319168481E-1
4.338568597E0,2.300560027E-1,-8.388900012E-2,-1.998510063E-1,3.160752338E-1
4.343579982E0,2.962239981E-1,-1.664920002E-1,-1.028409973E-1,3.550274833E-1
4.348591123E0,3.330419958E-1,-2.290900052E-1,1.993500069E-2,4.047179335E-1
4.353602428E0,3.669390082E-1,-2.882910073E-1,1.660010070E-1,4.952900917E-1
4.358613584E0,3.889569938E-1,-3.163720071E-1,3.052279949E-1,5.869777839E-1
4.363624953E0,3.972269893E-1,-3.093259931E-1,4.479480088E-1,6.738911407E-1
4.368636262E0,4.178049862E-1,-2.945489883E-1,5.376949906E-1,7.419137524E-1
4.373647416E0,4.365729988E-1,-2.518199980E-1,5.828289986E-1,7.705186151E-1
4.378658785E0,4.325860143E-1,-1.913619936E-1,6.030769944E-1,7.664541301E-1
4.383670095E0,4.088590145E-1,-1.120389998E-1,5.660470128E-1,7.071970390E-1
4.388681496E0,3.889630139E-1,-3.803899884E-2,5.054020286E-1,6.388821504E-1
4.393692652E0,3.609420061E-1,2.782399952E-2,4.095099866E-1,5.465818657E-1
4.398703958E0,3.201659918E-1,8.337300271E-2,3.044860065E-1,4.496321252E-1
4.403715366E0,2.713249922E-1,1.467379928E-1,1.433199942E-1,3.401321958E-1
4.408726751E0,2.145429999E-1,1.991519928E-1,-1.449699979E-2,2.930876627E-1
4.413737907E0,1.219860017E-1,2.311850041E-1,-1.953680068E-1,3.263368640E-1
4.418749213E0,4.556100070E-2,2.549709976E-1,-3.803229928E-1,4.601430139E-1
4.423760369E0,-1.772500016E-2,2.713710070E-1,-5.270479918E-1,5.930733384E-1
4.428771760E0,-8.675599843E-2,2.649219930E-1,-6.318470240E-1,6.906090988E-1
4.433783070E0,-1.637150049E-1,2.531169951E-1,-7.001339793E-1,7.622718708E-1
4.438794453E0,-2.367279977E-1,2.366459966E-1,-7.349060178E-1,8.075446288E-1
4.443805837E0,-3.013049960E-1,2.023359984E-1,-7.204660177E-1,8.067191826E-1
4.448816993E0,-3.738780022E-1,1.695619971E-1,-6.857209802E-1,7.992179265E-1
4.453828327E0,-4.171600044E-1,1.436029971E-1,-6.048470140E-1,7.486549274E-1
4.458839483E0,-4.480949938E-1,1.057220027E-1,-5.045430064E-1,6.830299486E-1
4.463850788E0,-4.483200014E-1,7.718899846E-2,-3.989860117E-1,6.050940445E-1
4.468861944E0,-4.324640036E-1,3.380199894E-2,-3.094930053E-1,5.328729772E-1
4.473873313E0,-4.054479897E-1,-1.265299972E-2,-2.335219979E-1,4.680605669E-1
4.478884697E0,-3.559289873E-1,-4.096399993E-2,-1.469029933E-1,3.872260099E-1
4.483896031E0,-2.867380083E-1,-7.071399689E-2,-8.277499676E-2,3.067097240E-1
4.488907185E0,-2.147109956E-1,-9.248500317E-2,-2.186599933E-2,2.348029160E-1
4.493918491E0,-1.490769982E-1,-1.159560010E-1,3.593600169E-2,1.922528070E-1
4.498929875E0,-7.801300287E-2,-1.297439933E-1,6.720899791E-2,1.656399161E-1
4.503941031E0,-2.022800036E-2,-1.575549990E-1,9.571599960E-2,1.854570093E-1
4.508952423E0,1.305999979E-2,-1.709010005E-1,1.121329963E-1,2.048207129E-1
4.513963732E0,5.269499868E-2,-1.914239973E-1,1.165359989E-1,2.302184803E-1
4.518974886E0,9.138800204E-2,-2.001940012E-1,1.115010008E-1,2.467020029E-1
4.523986188E0,8.489000052E-2,-1.972990036E-1,1.091440022E-1,2.409265909E-1
4.528997573E0,8.105099946E-2,-1.874870062E-1,1.142230034E-1,2.340246494E-1
4.534008728E0,7.738199830E-2,-1.637209952E-1,1.244539991E-1,2.197301432E-1
4.539020101E0,8.315800130E-2,-1.309590042E-1,1.280090064E-1,2.011263774E-1
4.544031411E0,6.092699990E-2,-8.963999897E-2,1.109599993E-1,1.551114121E-1
4.549042565E0,2.996700071E-2,-5.157899857E-2,9.950900078E-2,1.160192030E-1
4.554053976E0,1.609900035E-2,2.114000032E-3,9.384000301E-2,9.523441066E-2
4.559065286E0,-1.372100040E-2,5.465000123E-2,7.966099679E-2,9.757439673E-2
4.564076669E0,-2.184800059E-2,1.108139977E-1,7.367999852E-2,1.348548086E-1
4.569087825E0,-3.918199986E-2,1.731400043E-1,8.296699822E-2,1.959495164E-1
4.574099158E0,-3.288599849E-2,2.155800015E-1,9.766999632E-2,2.389469692E-1
4.579110543E0,-4.067400098E-2,2.496280074E-1,7.038199902E-2,2.625302692E-1
4.584121685E0,-5.747500062E-2,2.678560019E-1,8.522000164E-3,2.740854573E-1
4.589132990E0,-6.446100026E-2,2.775160074E-1,-6.884600222E-2,2.931042936E-1
4.594144136E0,-8.981499821E-2,2.649190128E-1,-1.311559975E-1,3.089509879E-1
4.599155519E0,-1.073990017E-1,2.335920036E-1,-1.435240060E-1,2.944467864E-1
4.604166815E0,-1.176360026E-1,1.932329983E-1,-1.563410014E-1,2.749904170E-1
4.609177968E0,-1.252900064E-1,1.417659968E-1,-1.674930006E-1,2.526837724E-1
4.614189582E0,-1.165560037E-1,7.072400302E-2,-1.253589988E-1,1.852081671E-1
4.619200738E0,-1.010949984E-1,-2.424000064E-3,-4.254899919E-2,1.097109466E-1
4.624212043E0,-6.517600268E-2,-7.963600010E-2,7.571300119E-2,1.277586098E-1
4.629223442E0,-3.950899839E-2,-1.496009976E-1,1.654340029E-1,2.265167295E-1
4.634234521E0,-2.129299939E-2,-2.242529988E-1,2.577250004E-1,3.422936972E-1
4.639245904E0,-4.284600168E-2,-2.943350077E-1,3.409990072E-1,4.524922094E-1
4.644257030E0,-5.198699981E-2,-3.486689925E-1,4.039579928E-1,5.361480900E-1
4.649268336E0,-7.931900024E-2,-3.712509871E-1,4.473060071E-1,5.866868528E-1
4.654279736E0,-1.012260020E-1,-3.678199947E-1,4.670690000E-1,6.030685722E-1
4.659290892E0,-1.295769960E-1,-3.746129870E-1,4.491989911E-1,5.990866561E-1
4.664302274E0,-2.782600001E-2,-1.132540032E-1,5.020949841E-1,5.154610834E-1
4.669313598E0,3.355790079E-1,8.387479782E-1,9.056900144E-1,1.279212978E0
4.674324981E0,2.306320071E-1,-5.391290188E-1,5.124840140E-1,7.787753760E-1
4.679336136E0,1.218189970E-1,-3.496409953E-1,1.524280012E-1,4.004035329E-1
4.684347432E0,-5.484790206E-1,-4.850000143E-3,1.256510019E0,1.371010644E0
4.689358817E0,-6.452389956E-1,-3.634009957E-1,1.758892059E0,1.908427342E0
4.694369973E0,7.901039720E-1,-6.573619843E-1,-1.199201941E0,1.579390503E0
4.699381274E0,2.422060072E-1,-4.064350128E-1,-1.552525997E0,1.623018836E0
4.704392659E0,-6.144899726E-1,-5.055930018E-1,-1.112568974E0,1.367856693E0
4.709403815E0,-6.705099940E-1,-4.946030080E-1,-6.085410118E-1,1.031764484E0
4.714415116E0,-4.103229940E-1,-4.668360054E-1,-3.606620133E-1,7.185943941E-1
4.719426500E0,-2.556850016E-1,-5.049520135E-1,-2.215580046E-1,6.078151902E-1
4.724437660E0,-1.568139941E-1,-4.535520077E-1,-2.752499878E-1,5.532292547E-1
4.729449043E0,-1.167730018E-1,-3.011820018E-1,-4.233109951E-1,5.324835498E-1
4.734460352E0,-1.436360031E-1,-1.441809982E-1,-3.510690033E-1,4.057941680E-1
4.739471511E0,-1.103700027E-1,4.478299990E-2,-1.553130001E-1,1.957273169E-1
4.744482894E0,-2.313699946E-2,1.612329930E-1,4.348000139E-2,1.685879868E-1
4.749494185E0,1.123749986E-1,2.419860065E-1,1.412760019E-1,3.019011036E-1
4.754505338E0,2.463990003E-1,3.271259964E-1,5.704699829E-2,4.134951570E-1
4.759516721E0,2.839440107E-1,3.984119892E-1,-1.833399944E-2,4.895839559E-1
4.764528041E0,2.255270034E-1,4.247139990E-1,-1.021200046E-2,4.809872090E-1
4.769539195E0,2.018219978E-1,4.093759954E-1,2.544300072E-2,4.571303651E-1
4.774550567E0,2.142470032E-1,3.334159851E-1,1.662099920E-2,3.966664280E-1
4.779561877E0,2.128950059E-1,2.536930144E-1,-2.896199934E-2,3.324503369E-1
4.784573031E0,2.167290002E-1,1.649820060E-1,-1.181090027E-1,2.968842507E-1
4.789584423E0,3.486729860E-1,2.744719982E-1,-2.049320042E-1,4.887789432E-1
4.794595733E0,1.658700034E-2,4.773300141E-2,-3.085519969E-1,3.126626022E-1
4.799606887E0,-9.602700174E-2,-1.046599969E-1,-3.615790009E-1,3.884768641E-1
4.804618279E0,1.698200032E-2,-1.856970042E-1,-3.281080127E-1,3.773945332E-1
4.809629663E0,2.245499939E-2,-2.677040100E-1,-3.389829993E-1,4.325264591E-1
4.814640742E0,-8.032599837E-2,-3.438810110E-1,-3.840230107E-1,5.217088158E-1
4.819652125E0,-1.467850059E-1,-3.625450134E-1,-4.217660129E-1,5.752141291E-1
4.824663424E0,-1.644809991E-1,-3.734239936E-1,-4.240829945E-1,5.885115668E-1
4.829674808E0,-1.653860062E-1,-4.109520018E-1,-3.540570140E-1,5.670894533E-1
4.834685964E0,-1.663469970E-1,-4.508439898E-1,-2.526780069E-1,5.429344360E-1
4.839697332E0,5.924599990E-2,-2.344779968E-1,-2.578119934E-1,3.534926356E-1
4.844708641E0,-7.869499922E-2,-1.627040058E-1,-2.616820037E-1,3.180298217E-1
4.849720034E0,-3.640469909E-1,-2.642180026E-1,9.502000175E-3,4.499240519E-1
4.854731190E0,-2.249390036E-1,-2.457939982E-1,3.018270135E-1,4.495684497E-1
4.859742496E0,2.274600044E-2,-2.105000019E-1,3.347510099E-1,3.960882099E-1
4.864753880E0,1.671970040E-1,-1.537580043E-1,2.041310072E-1,3.053945483E-1
4.869765021E0,1.950529963E-1,-6.847999990E-2,6.820899993E-2,2.176870447E-1
4.874776327E0,1.910240054E-1,1.837899908E-2,2.121400088E-2,1.930750944E-1
4.879787483E0,1.955620050E-1,4.690499976E-2,5.871099979E-2,2.095031224E-1
4.884798860E0,2.411569953E-1,7.868500054E-2,6.394100189E-2,2.616036648E-1
4.889810170E0,2.362480015E-1,3.292499855E-2,1.499699987E-2,2.390022672E-1
4.894821553E0,2.314999998E-1,6.980999839E-3,-7.545900345E-2,2.435878598E-1
4.899832713E0,1.689669937E-1,-2.511199936E-2,-1.789059937E-1,2.473617029E-1
4.904844019E0,1.225190014E-1,-3.003299981E-2,-2.784529924E-1,3.056942194E-1
4.909855175E0,1.032190025E-1,-1.478200033E-2,-3.671300113E-1,3.816505145E-1
4.914866558E0,8.936300129E-2,-7.792000193E-3,-4.571549892E-1,4.658724562E-1
4.919877867E0,7.617600262E-2,-1.153600030E-2,-5.699830055E-1,5.751664883E-1
4.924889245E0,1.120499969E-1,-5.404000171E-3,-5.921750069E-1,6.027069302E-1
4.929900401E0,1.351689994E-1,1.135000028E-2,-5.602790117E-1,5.764651350E-1
4.934911783E0,1.505600065E-1,2.557099983E-2,-4.538440108E-1,4.788492224E-1
4.939923093E0,1.466639936E-1,4.169499874E-2,-3.467220068E-1,3.787676728E-1
4.944934247E0,1.240300015E-1,6.646399945E-2,-2.480729967E-1,2.852036399E-1
4.949945553E0,1.389420033E-1,5.447199941E-2,-1.675820053E-1,2.244009970E-1
4.954956937E0,1.185619980E-1,6.437399983E-2,-1.328379959E-1,1.893327557E-1
4.959968088E0,7.091099769E-2,4.611799866E-2,-1.224469990E-1,1.488237446E-1
4.964979471E0,7.112699747E-2,8.714199811E-2,-1.163320020E-1,1.618206176E-1
4.969990780E0,5.984500051E-2,9.038200229E-2,-8.432299644E-2,1.373342570E-1
4.975001934E0,4.222000018E-2,9.178999811E-2,-4.799399897E-2,1.118541734E-1
4.980013317E0,3.697500005E-2,9.353899956E-2,-2.152499929E-2,1.028592274E-1
4.985024627E0,5.540499836E-2,7.881599665E-2,-7.280000020E-3,9.661611445E-2
4.990035768E0,5.269100145E-2,4.119300097E-2,2.997099981E-2,7.329028443E-2
4.995047150E0,3.883900121E-2,1.124200039E-2,4.287999868E-2,5.893678711E-2
5.000058450E0,2.699000062E-3,-4.222700000E-2,2.916399948E-2,5.139010601E-2
5.005069832E0,-4.603200033E-2,-9.289400280E-2,1.754399948E-2,1.051476711E-1
5.010080988E0,-5.825800076E-2,-1.195439994E-1,1.304899994E-2,1.336227483E-1
5.015092308E0,-5.836199969E-2,-1.649239957E-1,1.535699982E-2,1.756185777E-1
5.020103693E0,-6.069000065E-2,-2.143590003E-1,3.614600003E-2,2.256980073E-1
5.025114845E0,-3.515600041E-2,-2.304670066E-1,4.270000011E-2,2.370111295E-1
5.030126150E0,8.097999729E-3,-2.279260010E-1,4.725199938E-2,2.329132692E-1
5.035137306E0,4.523500055E-2,-2.116480023E-1,6.189100072E-2,2.251034831E-1
5.040148689E0,7.400500029E-2,-2.010270059E-1,5.335300043E-2,2.207603674E-1
5.045160073E0,9.479399770E-2,-1.841090024E-1,4.798899963E-2,2.125675677E-1
5.050171391E0,1.008479968E-1,-1.657190025E-1,2.910700068E-2,1.961640225E-1
5.055182545E0,1.041700020E-1,-1.270750016E-1,6.612999830E-3,1.644480986E-1
5.060193928E0,1.003940031E-1,-1.083960012E-1,-2.946200036E-2,1.506541018E-1
5.065205233E0,8.513999730E-2,-7.166499645E-2,-7.167900354E-2,1.323728462E-1
5.070216387E0,9.381899983E-2,-4.042100161E-2,-1.060499996E-1,1.472496673E-1
5.075227770E0,9.078100324E-2,-2.164999954E-2,-1.471029967E-1,1.742102312E-1
5.080239083E0,9.037599713E-2,4.147000145E-3,-1.640579998E-1,1.873500621E-1
5.085250466E0,8.551499993E-2,1.831299998E-2,-1.597570032E-1,1.821276510E-1
5.090261632E0,8.092500269E-2,4.945800081E-2,-1.532469988E-1,1.802209548E-1
5.095272938E0,8.140599728E-2,8.314099908E-2,-1.492429972E-1,1.892427920E-1
5.100284093E0,5.208799988E-2,8.403799683E-2,-1.386729926E-1,1.703107264E-1
5.105295476E0,1.709700003E-2,4.556199908E-2,-1.316590011E-1,1.403648665E-1
5.110306795E0,-1.878900081E-2,-1.484099962E-2,-1.121110022E-1,1.146392543E-1
5.115318177E0,-3.010700084E-2,-8.732300252E-2,-7.554300129E-2,1.193251160E-1
5.120329333E0,-5.249400064E-2,-1.412449926E-1,-5.021699890E-2,1.588317192E-1
5.125340639E0,-7.178500295E-2,-2.003200054E-1,-5.231999792E-3,2.128580866E-1
5.130352024E0,-7.421900332E-2,-2.340510041E-1,4.321400076E-2,2.493106151E-1
5.135363179E0,-7.197999954E-2,-2.645750046E-1,6.458000094E-2,2.816942135E-1
5.140374485E0,-7.452200353E-2,-2.806220055E-1,5.952100083E-2,2.963865525E-1
5.145385870E0,-7.482899725E-2,-2.918550074E-1,5.683099851E-2,3.066080341E-1
5.150397026E0,-4.061099887E-2,-2.815299928E-1,8.279400319E-2,2.962486068E-1
5.155408408E0,1.840000041E-3,-2.499230057E-1,1.233119965E-1,2.786947126E-1
5.160419718E0,-7.957500219E-2,-2.144010067E-1,1.168949977E-1,2.568353814E-1
5.165430872E0,-1.078199968E-1,-1.919829994E-1,1.019890010E-1,2.426610395E-1
5.170442235E0,-2.461300045E-2,-1.922059953E-1,7.123800367E-2,2.064553162E-1
5.175453545E0,5.349000171E-2,-1.417060047E-1,2.542500012E-2,1.535845132E-1
5.180464694E0,5.043999851E-2,-1.016699970E-1,2.591300011E-2,1.164150562E-1
5.185476077E0,1.417999971E-3,-9.094499797E-2,5.487999879E-3,9.112146576E-2
5.190487396E0,-5.741199851E-2,-8.085200191E-2,-2.384500019E-2,1.019890574E-1
5.195498550E0,-8.169700205E-2,-4.726300016E-2,-1.923700050E-2,9.632369136E-2
5.200509933E0,-7.257600129E-2,-2.096199989E-2,2.220999915E-3,7.557522241E-2
5.205521229E0,-7.277099788E-2,2.695000032E-3,2.388000023E-3,7.286002815E-2
5.210532611E0,-7.731100172E-2,1.202499960E-2,4.939999897E-3,7.839639788E-2
5.215543767E0,-9.312699735E-2,3.088700026E-2,9.949999861E-3,9.861869457E-2
5.220555064E0,-1.128790006E-1,2.113799937E-2,-6.637000013E-3,1.150327500E-1
5.225566220E0,-1.226370037E-1,1.608799957E-2,-3.269600123E-2,1.279362611E-1
5.230577602E0,-1.180500016E-1,1.312000025E-2,-7.042299956E-2,1.380845254E-1
5.235588912E0,-1.158699989E-1,4.414000083E-3,-1.598979980E-1,1.975163533E-1
5.240600295E0,-9.982399642E-2,4.699000157E-3,-2.153420001E-1,2.374006906E-1
5.245611669E0,-6.813800335E-2,2.596800029E-2,-2.487670034E-1,2.592337681E-1
5.250622825E0,-4.228600115E-2,5.185699835E-2,-2.509649992E-1,2.597319484E-1
5.255634141E0,-1.050299965E-2,7.074099779E-2,-2.246550024E-1,2.357635931E-1
5.260645297E0,3.613400087E-2,9.458400309E-2,-1.842229962E-1,2.102139672E-1
5.265656602E0,5.563899875E-2,1.043670028E-1,-1.488810033E-1,1.901413227E-1
5.270667962E0,8.611500263E-2,7.406900078E-2,-1.237130016E-1,1.679491510E-1
5.275679118E0,7.384700328E-2,5.152000114E-2,-9.427999705E-2,1.303702737E-1
5.280690500E0,5.048200116E-2,-1.279900037E-2,-5.646799877E-2,7.681719688E-2
5.285701810E0,3.482599929E-2,-5.701199919E-2,-2.194000036E-2,7.031772105E-2
5.290712964E0,1.306699961E-2,-9.551999718E-2,9.368999861E-3,9.686379354E-2
5.295724343E0,1.552799996E-2,-1.427820027E-1,2.555700019E-2,1.458800169E-1
5.300735652E0,2.062000101E-3,-1.773429960E-1,4.347399995E-2,1.826055277E-1
5.305747035E0,-1.363000018E-3,-1.995819956E-1,4.432199895E-2,2.044486985E-1
5.310758191E0,-6.800999865E-3,-1.861879975E-1,3.825400025E-2,1.901988237E-1
5.315769497E0,-1.432599965E-2,-1.612669975E-1,3.022100031E-2,1.646984748E-1
5.320780885E0,-1.920000091E-2,-1.226020008E-1,2.277800068E-2,1.261694415E-1
5.325792041E0,-3.537999839E-2,-9.629199654E-2,1.573199965E-2,1.037853010E-1
5.330803357E0,-4.644500092E-2,-7.031700015E-2,6.624000147E-3,8.453103571E-2
5.335814741E0,-6.411699951E-2,-4.914800078E-2,9.523999877E-3,8.134631018E-2
5.340825897E0,-6.280899793E-2,-4.714100063E-2,-4.310000222E-3,7.864998578E-2
5.345837198E0,-4.790699854E-2,-2.361200005E-2,1.772999950E-2,5.627574911E-2
5.350848583E0,-2.913700044E-2,4.453000147E-3,3.278800100E-2,4.408908045E-2
5.355859738E0,-6.438999902E-3,2.980300039E-2,4.572200030E-2,5.495617221E-2
5.360871044E0,6.132000126E-3,2.861000039E-2,3.970000148E-2,4.931757968E-2
5.365882429E0,3.445599973E-2,4.116800055E-2,2.702799998E-2,6.010435067E-2
5.370893599E0,3.880900145E-2,5.081599951E-2,1.245400030E-2,6.514220232E-2
5.375904904E0,4.765100032E-2,3.866700083E-2,-1.885000034E-3,6.139469040E-2
5.380916280E0,6.089799851E-2,2.142499946E-2,-3.030500002E-2,7.131612616E-2
5.385927436E0,8.321399987E-2,1.572700031E-2,-5.116499960E-2,9.894324382E-2
5.390938741E0,5.148899928E-2,-4.715900123E-2,-9.135299921E-2,1.149802544E-1
5.395950126E0,5.552000180E-2,-7.658000290E-2,-1.243320033E-1,1.562223239E-1
5.400961282E0,4.321299866E-2,-1.010819972E-1,-1.478459984E-1,1.842372727E-1
5.405972674E0,1.505799964E-2,-1.204330027E-1,-1.549150050E-1,1.967981460E-1
5.410983983E0,8.449000306E-3,-1.488649994E-1,-1.624509990E-1,2.205051037E-1
5.415995366E0,-4.929000046E-3,-1.815160066E-1,-1.729030013E-1,2.507345280E-1
5.421006532E0,-1.342099998E-2,-2.061460018E-1,-1.602230072E-1,2.614339483E-1
5.426017837E0,-2.426999994E-2,-2.228150070E-1,-1.458940059E-1,2.674333958E-1
5.431029222E0,-2.343600057E-2,-2.125580013E-1,-1.106180027E-1,2.407623155E-1
5.436040378E0,-1.365999971E-2,-1.919409931E-1,-5.458499864E-2,2.000186554E-1
5.441051761E0,-6.707000080E-3,-1.734739989E-1,-2.751599997E-2,1.757707097E-1
5.446063083E0,-1.167799998E-2,-1.641560048E-1,3.936999943E-3,1.646179503E-1
5.451074160E0,-1.438099984E-2,-1.218720004E-1,1.196799986E-2,1.232997594E-1
5.456085543E0,-1.462499984E-2,-8.485499769E-2,2.045900002E-2,8.850328771E-2
5.461096671E0,-1.256799977E-2,-5.990000069E-2,4.100500047E-2,7.367071850E-2
5.466108053E0,-2.204800025E-2,-4.963000119E-2,3.316500038E-2,6.363307774E-2
5.471119363E0,-3.568100184E-2,-3.957999870E-2,3.752800077E-2,6.517715115E-2
5.476130756E0,-4.862799868E-2,-3.707100078E-2,1.594300009E-2,6.319114342E-2
5.481141912E0,-5.629999936E-2,-4.238000140E-3,2.305000089E-3,5.650631467E-2
5.486153227E0,-5.421299860E-2,1.320699975E-2,-4.863199964E-2,7.401719698E-2
5.491164612E0,-6.352200359E-2,3.467499837E-2,-8.445700258E-2,1.112222358E-1
5.496175768E0,-6.534100324E-2,2.719599940E-2,-1.128659993E-1,1.332208801E-1
5.501187150E0,-6.455399841E-2,3.647000063E-3,-1.084100008E-1,1.262269686E-1
5.506198444E0,-3.811100125E-2,-1.716700010E-2,-1.186639965E-1,1.258105654E-1
5.511209598E0,-3.097900003E-2,-4.666699842E-2,-1.010560021E-1,1.155414330E-1
5.516220885E0,-2.624800056E-2,-5.908000097E-2,-9.812600166E-2,1.175079412E-1
5.521232269E0,-1.929300092E-2,-8.109399676E-2,-1.310690045E-1,1.553304225E-1
5.526243430E0,-2.641599998E-2,-9.542600065E-2,-1.285859942E-1,1.622907409E-1
5.531254813E0,-1.260800008E-2,-1.022410020E-1,-1.216659993E-1,1.594201980E-1
5.536266141E0,-6.320999935E-3,-1.153839976E-1,-8.925300092E-2,1.460120547E-1
5.541277524E0,1.571800001E-2,-1.319759935E-1,-1.987599954E-2,1.343866576E-1
5.546288680E0,3.229700029E-2,-1.547150016E-1,3.173600137E-2,1.612048440E-1
5.551299986E0,4.824699834E-2,-1.515299976E-1,2.148699947E-2,1.604705710E-1
5.556311141E0,7.779199630E-2,-1.610379964E-1,-2.638999932E-2,1.807795980E-1
5.561322519E0,4.007039964E-1,-1.594540030E-1,-1.418068051E0,1.482196434E0
5.566333829E0,1.350989938E-1,-1.739709973E-1,-4.176799953E-1,4.722014660E-1
5.571344997E0,-5.160999950E-3,-1.756550074E-1,-5.901899934E-2,1.853768050E-1
5.576356379E0,5.734400079E-2,-9.701299667E-2,-1.777300052E-2,1.140865264E-1
5.581367689E0,6.172100082E-2,-4.835699871E-2,-1.842500083E-2,8.054416132E-2
5.586379072E0,5.622699857E-2,-1.908300072E-2,-1.386329979E-1,1.508136081E-1
5.591390227E0,-1.181299984E-2,-4.661599919E-2,-1.396870017E-1,1.477330592E-1
5.596401533E0,-1.544760019E-1,-7.173299789E-2,-3.274299949E-2,1.734374877E-1
5.601412928E0,-2.911120057E-1,-5.093799904E-2,1.698179990E-1,3.408504546E-1
5.606424312E0,-3.873920143E-1,-5.472999997E-3,2.904520035E-1,4.842157502E-1
5.611435468E0,-3.702349961E-1,4.191900045E-2,3.540480137E-1,5.139855552E-1
5.616446774E0,-3.169910014E-1,5.056500062E-2,3.796960115E-1,4.972013429E-1
5.621457930E0,-2.401069999E-1,5.787200108E-2,3.418610096E-1,4.217457644E-1
5.626469312E0,-2.165599912E-2,9.830000252E-2,2.392569929E-1,2.595684524E-1
5.631480622E0,1.624190062E-1,1.218869984E-1,1.362850070E-1,2.445607841E-1
5.636491776E0,3.341329992E-1,1.202550009E-1,7.254599780E-2,3.624486835E-1
5.641503082E0,4.754740000E-1,7.091700286E-2,6.112999842E-2,4.846046045E-1
5.646514543E0,5.177789927E-1,-2.067999914E-3,3.269400075E-2,5.188142823E-1
5.651525858E0,4.386479855E-1,-1.028510034E-1,5.967000034E-3,4.505840534E-1
5.656537012E0,2.253510058E-1,-1.496730000E-1,-9.598899633E-2,2.870522081E-1
5.661548323E0,9.315399826E-2,-9.218099713E-2,-2.448299974E-1,2.776989940E-1
5.666559707E0,6.967999786E-2,-6.041700020E-2,-3.273169994E-1,3.400616623E-1
5.671570867E0,2.862000093E-2,-4.624100029E-2,-3.826130033E-1,3.864583352E-1
5.676582173E0,-2.958399989E-2,-4.130800068E-2,-3.902589977E-1,3.935526003E-1
5.681593557E0,-8.843699843E-2,-3.823700175E-2,-3.815689981E-1,3.935455136E-1
