"Time (s)","Linear Acceleration x (m/s^2)","Linear Acceleration y (m/s^2)","Linear Acceleration z (m/s^2)","Absolute acceleration (m/s^2)"
4.201984200E-2,-1.310890019E-1,-1.563239992E-1,-3.374899924E-2,2.067861554E-1
4.703145800E-2,9.644100070E-2,-6.729000062E-2,7.178399712E-2,1.377742829E-1
5.204294500E-2,8.565600216E-2,-9.541399777E-2,7.874500006E-2,1.504711159E-1
5.705455900E-2,-2.390100062E-2,-1.402990073E-1,6.887000054E-2,1.581080208E-1
6.206594500E-2,-8.573199809E-2,-1.612730026E-1,6.139599904E-2,1.926873778E-1
6.707740500E-2,-9.903699905E-2,-1.677699983E-1,7.487999648E-2,2.087153885E-1
7.208900000E-2,-1.186020002E-1,-1.958560050E-1,5.751200020E-2,2.360797308E-1
7.710046400E-2,-1.512500048E-1,-2.167340070E-1,5.671200156E-2,2.703080555E-1
8.211184800E-2,-1.756789982E-1,-2.304590046E-1,4.886500165E-2,2.938745508E-1
8.712346700E-2,-1.991620064E-1,-2.445220053E-1,-2.912000054E-3,3.153807153E-1
9.213493000E-2,-2.126120031E-1,-2.683260143E-1,-3.474099934E-2,3.441070340E-1
9.714631500E-2,-2.117460072E-1,-2.564760149E-1,-6.543400139E-2,3.389659663E-1
1.021579280E-1,-1.969600022E-1,-2.518180013E-1,-6.255199760E-2,3.257580400E-1
1.071693920E-1,-1.849250048E-1,-2.521730065E-1,-9.208700061E-2,3.259884942E-1
1.121810050E-1,-1.778780073E-1,-2.502839863E-1,-1.065620035E-1,3.250201838E-1
1.171923920E-1,-1.663880050E-1,-2.532579899E-1,-1.158580035E-1,3.244189492E-1
1.222038510E-1,-1.553090066E-1,-2.490770072E-1,-1.106780022E-1,3.137034638E-1
1.272154670E-1,-1.445640028E-1,-2.498349994E-1,-1.263100058E-1,3.150722066E-1
1.322269150E-1,-1.411049962E-1,-2.458200008E-1,-1.226970032E-1,3.088570014E-1
1.372383000E-1,-1.123000011E-1,-2.441540062E-1,-1.073250026E-1,2.893805888E-1
1.422498990E-1,-1.028259993E-1,-2.256540060E-1,-8.275999874E-2,2.614232850E-1
1.472613630E-1,-1.004929990E-1,-2.286030054E-1,-6.096399948E-2,2.570501627E-1
1.522729600E-1,-1.142840013E-1,-2.147369981E-1,-3.465799987E-2,2.457111887E-1
1.572844240E-1,-1.251209974E-1,-2.010249943E-1,-3.631800041E-2,2.395523105E-1
1.622960320E-1,-1.562319994E-1,-1.706179976E-1,-2.093599923E-2,2.322870096E-1
1.673074190E-1,-1.977429986E-1,-1.692499965E-1,-5.179800093E-2,2.653881831E-1
1.723188780E-1,-2.192289978E-1,-1.610970050E-1,-9.271299839E-2,2.874183338E-1
1.773302650E-1,-2.330400050E-1,-1.581169963E-1,-1.365070045E-1,3.129581293E-1
1.823418780E-1,-2.486370057E-1,-1.602710038E-1,-1.785330027E-1,3.455158294E-1
1.873533710E-1,-2.451660037E-1,-1.722490042E-1,-2.096669972E-1,3.656997929E-1
1.923649840E-1,-2.464819998E-1,-1.842959970E-1,-2.140260041E-1,3.748673381E-1
1.973763570E-1,-2.501179874E-1,-2.107080072E-1,-2.062419951E-1,3.866427711E-1
2.023878170E-1,-2.422340065E-1,-2.322659940E-1,-1.867109984E-1,3.840388038E-1
2.073994320E-1,-2.347889990E-1,-2.515699863E-1,-1.975010037E-1,3.967618663E-1
2.124108910E-1,-2.231429964E-1,-2.565279901E-1,-1.842290014E-1,3.867036740E-1
2.174222750E-1,-2.074709982E-1,-2.424249947E-1,-1.776340008E-1,3.651957439E-1
2.224338890E-1,-1.900629997E-1,-2.284049988E-1,-1.705459952E-1,3.426057849E-1
2.274453420E-1,-1.825489998E-1,-2.216150016E-1,-1.606989950E-1,3.290311736E-1
2.324569560E-1,-1.915500015E-1,-2.315810025E-1,-1.506469995E-1,3.361780514E-1
2.374683420E-1,-1.839739978E-1,-2.368669957E-1,-1.590609998E-1,3.394890384E-1
2.424798020E-1,-2.021169960E-1,-2.446459979E-1,-1.715259999E-1,3.607272003E-1
2.474911880E-1,-1.894939989E-1,-2.475779951E-1,-1.578360051E-1,3.494496298E-1
2.525028020E-1,-1.864369959E-1,-2.433049977E-1,-1.536760032E-1,3.428883044E-1
2.575142650E-1,-1.739819944E-1,-2.435919940E-1,-1.194439977E-1,3.222943725E-1
2.625258790E-1,-2.057580054E-1,-2.773639858E-1,-1.304350048E-1,3.691617909E-1
2.675372840E-1,-1.832379997E-1,-2.605290115E-1,-6.671100110E-2,3.254257028E-1
2.725487440E-1,-1.659410000E-1,-2.720539868E-1,-4.823999945E-3,3.187052842E-1
2.775603640E-1,-1.492549926E-1,-2.641830146E-1,4.134399816E-2,3.062336432E-1
2.825718280E-1,-1.096969992E-1,-3.040640056E-1,6.055400148E-2,3.288694851E-1
2.875834410E-1,-9.212899953E-2,-3.079420030E-1,8.394400030E-2,3.322087069E-1
2.925948860E-1,-1.051160023E-1,-2.902440131E-1,9.051500261E-2,3.216891772E-1
2.976062700E-1,-8.509100229E-2,-2.821559906E-1,9.249900281E-2,3.088827402E-1
3.026176650E-1,-6.551100314E-2,-2.789089978E-1,8.761999756E-2,2.995983721E-1
3.076292780E-1,-4.398600012E-2,-2.757630050E-1,8.090499789E-2,2.907329046E-1
3.126407370E-1,-1.591699943E-2,-2.966600060E-1,7.001399994E-2,3.052252779E-1
3.176523500E-1,-7.131999824E-3,-3.127189875E-1,8.281099796E-2,3.235764082E-1
3.226637370E-1,3.980999812E-3,-3.527860045E-1,7.698599994E-2,3.611103122E-1
3.276751820E-1,4.513999820E-2,-3.738310039E-1,7.653400302E-2,3.842456149E-1
3.326868740E-1,5.973900110E-2,-4.022229910E-1,6.036499888E-2,4.110912500E-1
3.376982600E-1,6.724400073E-2,-3.997859955E-1,2.681500092E-2,4.062876347E-1
3.427098930E-1,7.939899713E-2,-4.046559930E-1,2.284000069E-2,4.130040424E-1
3.477213560E-1,7.518000156E-2,-4.074569941E-1,-2.680799924E-2,4.152010398E-1
3.527329700E-1,8.285599947E-2,-4.056459963E-1,-5.128600076E-2,4.171858637E-1
3.577444440E-1,9.509599954E-2,-4.015559852E-1,-6.289000064E-2,4.174273716E-1
3.627558290E-1,9.092299640E-2,-4.191730022E-1,-9.226600081E-2,4.387322783E-1
3.677672280E-1,1.009609997E-1,-4.465340078E-1,-1.226769984E-1,4.739571600E-1
3.727788410E-1,1.200200021E-1,-4.836100042E-1,-1.423490047E-1,5.182148939E-1
3.777903050E-1,1.292970031E-1,-5.159260035E-1,-1.399919987E-1,5.499955598E-1
3.828019180E-1,1.314440072E-1,-5.674210191E-1,-1.417559981E-1,5.994488326E-1
3.878132910E-1,1.499619931E-1,-6.071140170E-1,-1.612389982E-1,6.458127001E-1
3.928247500E-1,1.355929971E-1,-6.828590035E-1,-1.933189929E-1,7.225331221E-1
3.978363660E-1,1.404539943E-1,-7.538939714E-1,-2.051140070E-1,7.938231545E-1
4.028478430E-1,8.058200032E-2,-8.708559871E-1,-3.272059858E-1,9.337812196E-1
4.078592280E-1,7.956600189E-2,-9.436290264E-1,-3.677879870E-1,1.015890984E0
4.128708410E-1,6.421700120E-2,-1.037947059E0,-4.125060141E-1,1.118757852E0
4.178823050E-1,5.852400139E-2,-1.115512967E0,-4.350399971E-1,1.198771887E0
4.228938990E-1,3.628699854E-2,-1.195456028E0,-4.426240027E-1,1.275283446E0
4.279052860E-1,2.228999976E-3,-1.299306989E0,-4.567990005E-1,1.377268654E0
4.329167450E-1,-2.445100062E-2,-1.386371970E0,-4.536989927E-1,1.458926957E0
4.379283510E-1,-6.056199968E-2,-1.482957006E0,-4.501909912E-1,1.550967815E0
4.429398140E-1,-6.542500108E-2,-1.553156972E0,-4.175710082E-1,1.609640506E0
4.479512040E-1,-6.769199669E-2,-1.611325979E0,-3.726429939E-1,1.655239082E0
4.529628170E-1,-8.178099990E-2,-1.674216032E0,-3.249210119E-1,1.707413576E0
4.579742810E-1,-9.331200272E-2,-1.713098049E0,-2.744640112E-1,1.737452891E0
4.629858890E-1,-8.797600120E-2,-1.751911044E0,-2.307759970E-1,1.769234197E0
4.679972760E-1,-9.685599804E-2,-1.783444047E0,-1.629859954E-1,1.793493292E0
4.730087260E-1,-8.656000346E-2,-1.793357015E0,-1.379670054E-1,1.800737880E0
4.780203420E-1,-6.185799837E-2,-1.776859999E0,-1.126409993E-1,1.781501014E0
4.830317280E-1,-4.672100022E-2,-1.774639010E0,-8.933400363E-2,1.777500220E0
4.880431920E-1,-2.199300006E-2,-1.757976055E0,-6.319399923E-2,1.759248983E0
4.930548070E-1,2.818000037E-3,-1.736446977E0,-3.170200065E-2,1.736738628E0
4.980662620E-1,2.521600015E-2,-1.750746012E0,-4.018900171E-2,1.751388763E0
5.030776460E-1,7.159499824E-2,-1.764973044E0,-5.981199816E-2,1.767436892E0
5.080892600E-1,9.648100287E-2,-1.822193027E0,-9.769099951E-2,1.827358624E0
5.131007180E-1,1.261990070E-1,-1.886512995E0,-1.226480007E-1,1.894703143E0
5.181121030E-1,1.654579937E-1,-1.981847048E0,-1.826059967E-1,1.997107663E0
5.231237160E-1,1.997800022E-1,-2.084265947E0,-2.368779927E-1,2.107175306E0
5.281351890E-1,2.411250025E-1,-2.210500956E0,-2.568669915E-1,2.238400409E0
5.331468020E-1,2.822499871E-1,-2.343781948E0,-2.644009888E-1,2.375476112E0
5.381582660E-1,3.158999979E-1,-2.450607061E0,-2.498600036E-1,2.483485011E0
5.431696610E-1,3.418929875E-1,-2.564485073E0,-2.229200006E-1,2.596761027E0
5.481812740E-1,3.699040115E-1,-2.630351067E0,-1.814420074E-1,2.662423128E0
5.531927380E-1,3.806079924E-1,-2.676927090E0,-1.182459965E-1,2.706433669E0
5.582043400E-1,3.812330067E-1,-2.685069084E0,-8.620300144E-2,2.713367935E0
5.632157270E-1,3.789469898E-1,-2.664350986E0,-8.515200019E-2,2.692511442E0
5.682271910E-1,3.714100122E-1,-2.617147923E0,-1.036039963E-1,2.645400241E0
5.732388060E-1,3.659110069E-1,-2.541066885E0,-9.855899960E-2,2.569168281E0
5.782501830E-1,3.410289884E-1,-2.452857018E0,-8.928100020E-2,2.478059607E0
5.832616430E-1,2.776739895E-1,-2.395593882E0,-1.428470016E-1,2.415859714E0
5.882730300E-1,2.379969954E-1,-2.302284956E0,-1.254090071E-1,2.317948664E0
5.932846440E-1,2.006430030E-1,-2.249505997E0,-1.087670028E-1,2.261053981E0
5.982961210E-1,1.322959960E-1,-2.206142902E0,-3.785799816E-2,2.210430267E0
6.033077350E-1,3.314699978E-2,-2.191335917E0,3.974600136E-2,2.191946981E0
6.083191110E-1,-6.586500257E-2,-2.209886074E0,1.193599999E-1,2.214087051E0
6.133308020E-1,-1.741210073E-1,-2.237848043E0,2.204820067E-1,2.255414442E0
6.183422170E-1,-2.654669881E-1,-2.282407045E0,3.051190078E-1,2.317962953E0
6.233536790E-1,-3.469530046E-1,-2.312438965E0,3.232640028E-1,2.360561367E0
6.283652920E-1,-4.115160108E-1,-2.344691992E0,2.702049911E-1,2.395816500E0
6.333767660E-1,-4.831379950E-1,-2.352840900E0,2.034389973E-1,2.410533147E0
6.383881500E-1,-5.210790038E-1,-2.344050884E0,6.781200320E-2,2.402227371E0
6.433997540E-1,-5.493180156E-1,-2.308763027E0,-8.426699787E-2,2.374707966E0
6.484112170E-1,-5.678539872E-1,-2.251774073E0,-2.101439983E-1,2.331760092E0
6.534226020E-1,-5.765730143E-1,-2.168302059E0,-2.980790138E-1,2.263365052E0
6.584342150E-1,-5.875660181E-1,-2.067941904E0,-3.458960056E-1,2.177443820E0
6.634456790E-1,-5.911499858E-1,-1.950713038E0,-3.564000130E-1,2.069241560E0
6.684570630E-1,-5.778309703E-1,-1.823804975E0,-3.079749942E-1,1.937782705E0
6.734686770E-1,-5.452960134E-1,-1.701606989E0,-2.151840031E-1,1.799755051E0
6.784801400E-1,-5.271289945E-1,-1.572162986E0,-1.425009966E-1,1.664292031E0
6.834917680E-1,-7.075319886E-1,-1.368482947E0,-4.752990007E-1,1.612220901E0
6.885031540E-1,-4.400449991E-1,-1.475859046E0,2.573759854E-1,1.561423044E0
6.935146140E-1,-2.120199949E-1,-1.181205988E0,2.506580055E-1,1.225981036E0
6.985262290E-1,-2.041440010E-1,-1.056416035E0,1.855649948E-1,1.091844302E0
7.035376930E-1,-1.819610000E-1,-9.938079715E-1,2.728370130E-1,1.046520007E0
7.085490780E-1,-1.151420027E-1,-9.360619783E-1,3.166239858E-1,9.948469513E-1
7.135606910E-1,-3.908199817E-2,-8.951550126E-1,2.939899862E-1,9.430058383E-1
7.185721550E-1,2.759799920E-2,-8.925700188E-1,2.673279941E-1,9.321518891E-1
7.235837730E-1,7.138299942E-2,-9.018999934E-1,2.393160015E-1,9.358372077E-1
7.285951600E-1,1.601369977E-1,-8.876019716E-1,2.958860099E-1,9.492258156E-1
7.336066100E-1,2.116570026E-1,-9.137840271E-1,2.449730039E-1,9.694388622E-1
7.386179970E-1,2.801949978E-1,-8.895599842E-1,1.965470016E-1,9.531300678E-1
7.436296050E-1,3.282220066E-1,-8.483870029E-1,1.550990045E-1,9.227924434E-1
7.486410690E-1,3.749639988E-1,-8.092399836E-1,8.363100141E-2,8.958021521E-1
7.536526670E-1,3.904260099E-1,-7.648419738E-1,1.307700016E-2,8.588286919E-1
7.586641310E-1,4.149219990E-1,-7.150750160E-1,-8.681800216E-2,8.312820877E-1
7.636755200E-1,4.110639989E-1,-6.815130115E-1,-1.575160027E-1,8.113229241E-1
7.686872110E-1,4.097869992E-1,-6.379619837E-1,-2.050399929E-1,7.854694622E-1
7.736985300E-1,3.899489939E-1,-6.110029817E-1,-1.768430024E-1,7.460953753E-1
7.787099900E-1,3.588599861E-1,-6.008139849E-1,-1.101069972E-1,7.084359427E-1
7.837216820E-1,3.422720134E-1,-6.124429703E-1,8.121999912E-3,7.016427081E-1
7.887330690E-1,3.278529942E-1,-6.316769719E-1,1.462029964E-1,7.265526125E-1
7.937446820E-1,3.294790089E-1,-6.776260138E-1,2.666609883E-1,7.992756186E-1
7.987561550E-1,2.979640067E-1,-7.311059833E-1,3.981589973E-1,8.842110015E-1
8.037675390E-1,2.622349858E-1,-7.871779799E-1,4.963609874E-1,9.668456908E-1
8.087791340E-1,2.106599957E-1,-8.193240166E-1,5.601239800E-1,1.014597630E0
8.137905970E-1,1.692409962E-1,-8.321229815E-1,5.742260218E-1,1.025088628E0
8.188019720E-1,1.330509931E-1,-8.133239746E-1,5.261600018E-1,9.777744126E-1
8.238135850E-1,7.198499888E-2,-7.866500020E-1,4.524970055E-1,9.103590532E-1
8.288250490E-1,2.409699932E-2,-7.448940277E-1,3.629220128E-1,8.289512442E-1
8.338366620E-1,-1.327000000E-2,-6.998280287E-1,2.297150046E-1,7.366846991E-1
8.388480490E-1,-4.487700015E-2,-6.704970002E-1,8.181399852E-2,6.769591589E-1
8.438595080E-1,-7.058200240E-2,-6.595330238E-1,-1.786199957E-2,6.635395087E-1
8.488711100E-1,-9.972299635E-2,-6.620609760E-1,-1.314280033E-1,6.823069192E-1
8.538824960E-1,-8.582700044E-2,-6.734759808E-1,-2.260109931E-1,7.155537294E-1
8.588939560E-1,-6.251700222E-2,-6.893519759E-1,-2.581219971E-1,7.387431811E-1
8.639055800E-1,-5.318899825E-2,-7.192559838E-1,-2.782639861E-1,7.730388643E-1
8.689170440E-1,-4.122800007E-2,-7.250419855E-1,-2.798640132E-1,7.782734061E-1
8.739284290E-1,-4.079499841E-2,-7.068690062E-1,-2.613239884E-1,7.547305815E-1
8.789400230E-1,-4.474499822E-2,-6.623290181E-1,-2.463939935E-1,7.080902789E-1
8.839514870E-1,2.880000102E-4,-6.013450027E-1,-2.048469931E-1,6.352780381E-1
8.889631000E-1,4.829000216E-3,-5.714560151E-1,-1.787409931E-1,5.987767857E-1
8.939745580E-1,-2.774400078E-2,-5.346999764E-1,-1.003549993E-1,5.447429855E-1
8.989859430E-1,-8.024299890E-2,-5.078060031E-1,-1.747000031E-2,5.144036125E-1
9.039975620E-1,-1.359609962E-1,-4.885610044E-1,9.801600128E-2,5.165117462E-1
9.090090250E-1,-1.926849931E-1,-4.745149910E-1,2.058500051E-1,5.519657670E-1
9.140206520E-1,-2.365799993E-1,-4.822719991E-1,2.949720025E-1,6.128334680E-1
9.190320390E-1,-2.797609866E-1,-4.664810002E-1,3.961510062E-1,6.729088741E-1
9.240434990E-1,-3.014639914E-1,-4.293020070E-1,4.603919983E-1,6.979552589E-1
9.290548850E-1,-3.137150109E-1,-4.300430119E-1,4.706209898E-1,7.105196804E-1
9.340664990E-1,-3.400689960E-1,-4.275189936E-1,4.190230072E-1,6.884763558E-1
9.390779730E-1,-3.683280051E-1,-4.167149961E-1,3.373650014E-1,6.504860118E-1
9.440895870E-1,-4.098170102E-1,-4.094919860E-1,2.495599985E-1,6.308041386E-1
9.491010550E-1,-4.663349986E-1,-4.176340103E-1,1.438840032E-1,6.423309925E-1
9.541126690E-1,-5.050640106E-1,-3.766759932E-1,2.942500077E-2,6.307458199E-1
9.591240550E-1,-5.101680160E-1,-3.344509900E-1,-1.055739969E-1,6.190918656E-1
9.641355100E-1,-5.265259743E-1,-2.934809923E-1,-2.308599949E-1,6.454897611E-1
9.691468960E-1,-5.608000159E-1,-2.704710066E-1,-3.610300124E-1,7.197179261E-1
9.741585150E-1,-5.242829919E-1,-2.278099954E-1,-4.545600116E-1,7.303388623E-1
9.791699780E-1,-4.423229992E-1,-1.612779945E-1,-5.223619938E-1,7.032227810E-1
9.841815920E-1,-3.835540116E-1,-1.139639989E-1,-5.766549706E-1,7.018777871E-1
9.891929630E-1,-3.450730145E-1,-8.838900179E-2,-6.131629944E-1,7.091240080E-1
9.942044230E-1,-2.637709975E-1,-5.364700034E-2,-6.581770182E-1,7.110908008E-1
9.992158100E-1,-1.619729996E-1,-5.797699839E-2,-6.598119736E-1,6.818712675E-1
1.004227423E0,-8.697500080E-2,-8.726599813E-2,-6.212279797E-1,6.333278834E-1
1.009238886E0,1.496730000E-1,7.242000196E-3,-4.839420021E-1,5.066106146E-1
1.014250500E0,2.783879936E-1,6.827799976E-2,-3.713360131E-1,4.690972126E-1
1.019261886E0,3.230699897E-1,6.279099733E-2,-2.516759932E-1,4.143159822E-1
1.024273341E0,4.017460048E-1,9.316000342E-2,-1.065979972E-1,4.259598240E-1
1.029284956E0,5.130310059E-1,1.591580063E-1,4.462499917E-2,5.390022954E-1
1.034296343E0,6.395720243E-1,2.299630046E-1,1.742859930E-1,7.016487477E-1
1.039307803E0,7.252299786E-1,2.968269885E-1,2.506589890E-1,8.227361130E-1
1.044319418E0,7.873970270E-1,3.537850082E-1,2.241719961E-1,8.918581692E-1
1.049330810E0,6.902319789E-1,4.570310116E-1,-3.738709986E-1,9.083375220E-1
1.054342269E0,7.804920077E-1,2.704679966E-1,4.242669940E-1,9.286135868E-1
1.059353875E0,9.363899827E-1,3.456279933E-1,3.340660036E-1,1.052561164E0
1.064365338E0,8.102430105E-1,3.454360068E-1,-2.124779969E-1,9.060721109E-1
1.069376738E0,6.807559729E-1,2.941780090E-1,-2.896870077E-1,7.961708096E-1
1.074388428E0,6.484060287E-1,2.374169976E-1,-3.921149969E-1,7.940726539E-1
1.079399829E0,5.809170008E-1,1.472419947E-1,-5.538820028E-1,8.160453663E-1
1.084411442E0,4.357089996E-1,9.577999823E-3,-7.150959969E-1,8.374343886E-1
1.089422906E0,2.503460050E-1,-1.258790046E-1,-8.177409768E-1,8.644182733E-1
1.094434280E0,9.574300051E-2,-2.333849967E-1,-8.894400001E-1,9.245208448E-1
1.099445894E0,-2.682600021E-1,-2.368659973E-1,-1.447124958E0,1.490717805E0
1.104457348E0,-3.881600127E-2,-4.583930075E-1,-1.905339956E-1,4.979297488E-1
1.109468733E0,-1.119609997E-1,-2.829009891E-1,-7.274680138E-1,7.885289761E-1
1.114480355E0,-2.807990015E-1,-3.033359945E-1,-5.508599877E-1,6.886998845E-1
1.119491819E0,-4.408310056E-1,-2.764480114E-1,-3.347930014E-1,6.187421371E-1
1.124503203E0,-5.140450001E-1,-2.715179920E-1,-1.309439987E-1,5.959115814E-1
1.129514811E0,-6.040970087E-1,-1.911969930E-1,-3.387460113E-1,7.184972834E-1
1.134526274E0,-4.711279869E-1,-2.954710126E-1,2.757610083E-1,6.207324971E-1
1.139537888E0,-4.032050073E-1,-8.574099839E-2,2.813870013E-1,4.991036377E-1
1.144549279E0,-3.502779901E-1,-4.734000191E-3,3.404510021E-1,4.884915209E-1
1.149560739E0,-2.354950011E-1,9.463299811E-2,2.981120050E-1,3.915150922E-1
1.154572354E0,-2.047069967E-1,1.615979970E-1,-1.039149985E-1,2.807440009E-1
1.159583804E0,4.311399907E-2,1.497450024E-1,7.062000223E-3,1.559879947E-1
1.164595189E0,6.562999636E-2,2.827390134E-1,-2.158319950E-1,3.617071968E-1
1.169606792E0,9.046299756E-2,3.249799907E-1,-5.326660275E-1,6.304987274E-1
1.174618255E0,2.485660017E-1,3.903430104E-1,-7.945770025E-1,9.195136410E-1
1.179629879E0,2.484489977E-1,4.535759985E-1,-1.153167009E0,1.263824451E0
1.184641342E0,2.022929937E-1,4.555209875E-1,-1.053863049E0,1.165782634E0
1.189652717E0,8.271999657E-3,4.993639886E-1,-9.630699754E-1,1.084867087E0
1.194664102E0,-1.078279987E-1,4.689899981E-1,-7.015619874E-1,8.507453895E-1
1.199675715E0,-2.689979970E-1,4.102540016E-1,-2.024360001E-1,5.307057588E-1
1.204687198E0,-4.205960035E-1,3.249639869E-1,1.557060033E-1,5.538474072E-1
1.209698582E0,-5.279300213E-1,2.208209932E-1,4.747009873E-1,7.435139849E-1
1.214710211E0,-5.535100102E-1,1.805099994E-1,6.313049793E-1,8.587800465E-1
1.219721903E0,-4.908449948E-1,1.744710058E-1,5.938280225E-1,7.899371247E-1
1.224733290E0,-3.844430149E-1,2.487699986E-1,4.094769955E-1,6.142917496E-1
1.229744770E0,-4.024290144E-1,2.533900142E-1,1.272590011E-1,4.922910362E-1
1.234756155E0,-3.973430097E-1,2.928290069E-1,-1.659850031E-1,5.207507234E-1
1.239767763E0,-4.139179885E-1,3.199549913E-1,-3.428489864E-1,6.254955837E-1
1.244779227E0,-4.280799925E-1,2.824909985E-1,-3.197700083E-1,6.044059087E-1
1.249790840E0,-4.817839861E-1,1.743569970E-1,-1.193969995E-1,5.260910712E-1
1.254802227E0,-4.999960065E-1,3.389300033E-2,1.220749989E-1,5.157974867E-1
1.259813686E0,-4.376879930E-1,-1.194000021E-1,3.626430035E-1,5.808072724E-1
1.264825302E0,-2.978129983E-1,-2.683680058E-1,6.059190035E-1,7.265341060E-1
1.269836755E0,-1.062629968E-1,-4.340569973E-1,6.392109990E-1,7.799282035E-1
1.274848140E0,6.832099706E-2,-5.908290148E-1,5.601959825E-1,8.170472582E-1
1.279859510E0,1.897380054E-1,-7.392380238E-1,3.495829999E-1,8.394531793E-1
1.284871124E0,3.041430116E-1,-8.715710044E-1,9.985300153E-2,9.284985779E-1
1.289882587E0,3.894160092E-1,-9.712070227E-1,-1.392350048E-1,1.055591917E0
1.294894206E0,4.150109887E-1,-1.047098994E0,-4.309099913E-1,1.205957646E0
1.299905669E0,3.582189977E-1,-1.089630008E0,-7.443479896E-1,1.367358159E0
1.304917054E0,1.921859980E-1,-1.117733955E0,-1.100940943E0,1.580612417E0
1.309928657E0,-6.989199668E-2,-1.099432945E0,-1.356835008E0,1.747752537E0
1.314940121E0,-3.601599932E-1,-1.061985970E0,-1.567258000E0,1.927129228E0
1.319951511E0,-6.340370178E-1,-9.613890052E-1,-1.695405006E0,2.049553584E0
1.324963124E0,-8.247669935E-1,-8.352890015E-1,-1.695384979E0,2.062105365E0
1.329974583E0,-9.588400126E-1,-6.375309825E-1,-1.583243966E0,1.957672439E0
1.334985967E0,-1.049980044E0,-4.187859893E-1,-1.469867945E0,1.854279260E0
1.339997576E0,-1.055644989E0,-1.970050037E-1,-1.255005002E0,1.651736925E0
1.345009039E0,-9.859129786E-1,3.518500179E-2,-1.076547027E0,1.460210905E0
1.350020677E0,-8.596640229E-1,2.352560014E-1,-9.519900084E-1,1.304090716E0
1.355032140E0,-6.809809804E-1,4.004139900E-1,-7.768139839E-1,1.107928890E0
1.360043753E0,-4.678559899E-1,4.994390011E-1,-5.703989863E-1,8.908891888E-1
1.365055145E0,-2.820209861E-1,4.864990115E-1,-5.191310048E-1,7.653196227E-1
1.370066605E0,-7.431600243E-2,4.496180117E-1,-4.257250130E-1,6.236353192E-1
1.375077977E0,1.122609973E-1,3.645569980E-1,-2.769030035E-1,4.713593212E-1
1.380089591E0,2.615480125E-1,2.507500052E-1,-1.297139972E-1,3.848488652E-1
1.385101054E0,3.626059890E-1,1.330270022E-1,-4.446600005E-2,3.887885180E-1
1.390112682E0,3.980309963E-1,2.164399996E-2,-6.559999892E-4,3.986195769E-1
1.395124068E0,4.115729928E-1,-3.715699911E-2,-2.033100091E-2,4.137466865E-1
1.400135514E0,3.925360143E-1,-7.842800021E-2,-1.060599983E-1,4.141065044E-1
1.405147129E0,3.539479971E-1,-7.976800203E-2,-2.744649947E-1,4.549430207E-1
1.410158506E0,3.177089989E-1,-6.895700097E-2,-5.416129827E-1,6.316950998E-1
1.415169965E0,2.751190066E-1,1.447600033E-2,-9.386720061E-1,9.782664042E-1
1.420181576E0,2.198760062E-1,1.717949957E-1,-1.265509009E0,1.295905873E0
1.425193039E0,1.388809979E-1,3.782410026E-1,-1.539010048E0,1.590882181E0
1.430204429E0,5.204400048E-2,6.337760091E-1,-1.863566041E0,1.969075671E0
1.435216042E0,-4.308399931E-2,9.705439806E-1,-2.150077105E0,2.359373520E0
1.440227506E0,-9.629099816E-2,1.441082001E0,-2.308193922E0,2.722819948E0
1.445238890E0,-1.266320050E-1,2.002278090E0,-2.335931063E0,3.079241326E0
1.450250504E0,-1.581200063E-1,2.642194033E0,-2.255075932E0,3.477291863E0
1.455261967E0,-2.003729939E-1,3.363387108E0,-2.063014984E0,3.950766128E0
1.460273347E0,-2.557379901E-1,4.096731186E0,-1.660891056E0,4.427998129E0
1.465284960E0,-2.427480072E-1,4.782669067E0,-1.351884007E0,4.975986372E0
1.470296424E0,-2.765330076E-1,5.474134922E0,-6.275690198E-1,5.516925459E0
1.475307819E0,-3.740459979E-1,6.097271919E0,-2.977100015E-2,6.108806887E0
1.480319432E0,-4.732669890E-1,6.625961781E0,4.330649972E-1,6.656943477E0
1.485330905E0,-6.436769962E-1,7.000494957E0,7.904989719E-1,7.074329533E0
1.490342289E0,-8.521249890E-1,7.261577129E0,1.074249983E0,7.389900705E0
1.495353913E0,-1.043952942E0,7.349362850E0,1.311004043E0,7.538017223E0
1.500365376E0,-1.219537020E0,7.244636059E0,1.457898974E0,7.489825872E0
1.505376990E0,-1.391278982E0,6.942546844E0,1.522305965E0,7.242377327E0
1.510388443E0,-1.368370056E0,6.454930782E0,1.437150955E0,6.753071219E0
1.515399828E0,-1.133859992E0,5.781712055E0,1.319646955E0,6.037822526E0
1.520411457E0,-1.029863000E0,5.063985825E0,1.081220031E0,5.279546097E0
1.525422844E0,-8.243659735E-1,4.354238033E0,7.546870112E-1,4.495388815E0
1.530434307E0,-6.055769920E-1,3.678648949E0,4.589309990E-1,3.756301272E0
1.535445923E0,-4.329859912E-1,3.080166101E0,1.955740005E-1,3.116592574E0
1.540457309E0,-2.393810004E-1,2.608938932E0,3.563800082E-2,2.620140394E0
1.545468769E0,-4.838100076E-2,2.219417095E0,2.858900093E-2,2.220128441E0
1.550480384E0,1.880739927E-1,1.935485959E0,1.117480025E-1,1.947810396E0
1.555491844E0,4.222919941E-1,1.726024985E0,3.133589923E-1,1.804352138E0
1.560503228E0,6.521009803E-1,1.555125952E0,5.852820277E-1,1.784995089E0
1.565514856E0,8.703520298E-1,1.434792995E0,8.820930123E-1,1.895845900E0
1.570526242E0,1.010095000E0,1.331573963E0,1.161080956E0,2.035065138E0
1.575537914E0,1.064093947E0,1.279000044E0,1.427132010E0,2.191995168E0
1.580549300E0,1.068169951E0,1.281872034E0,1.730559945E0,2.403959376E0
1.585560762E0,1.105844975E0,1.342607975E0,2.066698074E0,2.701246048E0
1.590572156E0,1.172137022E0,1.434898019E0,2.437885046E0,3.062045235E0
1.595583769E0,1.257544994E0,1.527647972E0,2.755522966E0,3.392349416E0
1.600595233E0,1.364541054E0,1.558670998E0,3.005505085E0,3.650272371E0
1.605606846E0,1.627406955E0,1.456200004E0,3.228801966E0,3.897965364E0
1.610618224E0,1.811856985E0,1.155644059E0,3.382704020E0,4.007620916E0
1.615629683E0,2.030499935E0,6.809279919E-1,3.445555925E0,4.056901349E0
1.620641299E0,2.327343941E0,6.327500194E-2,3.323229074E0,4.057632934E0
1.625652685E0,2.471024036E0,-6.394410133E-1,3.128308058E0,4.037468997E0
1.630664375E0,2.394076109E0,-1.393663049E0,2.805305958E0,3.942542153E0
1.635675776E0,2.326766014E0,-2.132002115E0,2.624201059E0,4.104351874E0
1.640687161E0,2.120968103E0,-2.850635052E0,2.598413944E0,4.401861075E0
1.645698639E0,1.881597996E0,-3.475383043E0,2.756850958E0,4.818602030E0
1.650710255E0,1.605855942E0,-3.972757101E0,3.066201925E0,5.269076441E0
1.655721641E0,1.319869995E0,-4.275774002E0,3.435885906E0,5.641773842E0
1.660733096E0,1.042464018E0,-4.362926006E0,3.751231909E0,5.847528999E0
1.665744711E0,7.497140169E-1,-4.234254837E0,3.926454067E0,5.823059906E0
1.670756166E0,4.200679958E-1,-3.983093977E0,3.951880932E0,5.626620447E0
1.675767779E0,8.687999845E-2,-3.626200914E0,3.944648027E0,5.358836559E0
1.680779175E0,-2.165129930E-1,-3.180339098E0,3.990962029E0,5.107760034E0
1.685790634E0,-4.804239869E-1,-2.681443930E0,4.007232189E0,4.845498795E0
1.690802255E0,-6.839540005E-1,-2.120815992E0,3.879131079E0,4.473623975E0
1.695813641E0,-8.505510092E-1,-1.537245035E0,3.667685032E0,4.066752121E0
1.700825086E0,-9.300910234E-1,-9.632610083E-1,3.315807104E0,3.575963903E0
1.705836701E0,-9.383929968E-1,-3.910759985E-1,2.755731106E0,2.937273528E0
1.710848088E0,-8.630300164E-1,1.544319987E-1,2.149698973E0,2.321610589E0
1.715859538E0,-6.897370219E-1,6.143350005E-1,1.618733048E0,1.863717075E0
1.720871153E0,-4.272390008E-1,9.620980024E-1,1.116641998E0,1.534618872E0
1.725882616E0,-1.305560023E-1,1.152384996E0,7.218130231E-1,1.366034440E0
1.730893991E0,1.500280052E-1,1.194841027E0,4.961880147E-1,1.302442332E0
1.735905605E0,3.713339865E-1,1.084730983E0,4.778980017E-1,1.242141995E0
1.740916996E0,5.787839890E-1,8.818470240E-1,6.264719963E-1,1.226830160E0
1.745928456E0,7.674409747E-1,6.394450068E-1,8.154109716E-1,1.289476878E0
1.750940071E0,8.740789890E-1,3.971399963E-1,9.673129916E-1,1.362875152E0
1.755951463E0,9.191079736E-1,1.214520037E-1,1.070731997E0,1.416325198E0
1.760962922E0,9.552829862E-1,-1.298909932E-1,1.185127020E0,1.527731425E0
1.765974557E0,1.029225945E0,-3.683289886E-1,1.312057972E0,1.707767084E0
1.770986020E0,1.098091960E0,-5.714910030E-1,1.511981964E0,1.954097587E0
1.775997405E0,1.169203043E0,-7.887610197E-1,1.759477973E0,2.254981694E0
1.781009018E0,1.245067954E0,-9.599530101E-1,2.038136005E0,2.574043972E0
1.786020497E0,1.352009058E0,-1.113067031E0,2.385732889E0,2.959487815E0
1.791031881E0,1.460242033E0,-1.171532989E0,2.813189030E0,3.379175766E0
1.796043509E0,1.591192007E0,-1.170861959E0,3.061378956E0,3.643466871E0
1.801054972E0,1.631785989E0,-1.164502978E0,2.953841925E0,3.569870420E0
1.806066357E0,1.551126003E0,-1.156635046E0,2.696934938E0,3.319224995E0
1.811077965E0,1.324002981E0,-1.160714030E0,2.340023994E0,2.928472853E0
1.816089352E0,1.079993963E0,-1.120965004E0,1.902075052E0,2.457811833E0
1.821100812E0,8.755599856E-1,-1.059852958E0,1.438925028E0,1.990075078E0
1.826112413E0,6.934180260E-1,-9.932379723E-1,8.759179711E-1,1.494852006E0
1.831123800E0,5.705310106E-1,-9.065179825E-1,3.743939996E-1,1.134659135E0
1.836135259E0,4.799849987E-1,-8.076099753E-1,2.132800035E-2,9.397203599E-1
1.841146875E0,3.539049923E-1,-7.136620283E-1,-1.544760019E-1,8.114339587E-1
1.846158352E0,2.557080090E-1,-6.308969855E-1,-2.553319931E-1,7.270570947E-1
1.851169737E0,1.376570016E-1,-6.118760109E-1,-3.605520129E-1,7.234220461E-1
1.856181350E0,-6.920000073E-3,-6.045079827E-1,-4.908959866E-1,7.787532711E-1
1.861192824E0,-1.360110044E-1,-6.228049994E-1,-6.014509797E-1,8.764293135E-1
1.866204437E0,-2.619499862E-1,-6.661769748E-1,-6.789309978E-1,9.865884942E-1
1.871215824E0,-3.802950084E-1,-7.270240188E-1,-7.616450191E-1,1.119504959E0
1.876227268E0,-5.256950259E-1,-7.974460125E-1,-7.813379765E-1,1.234003418E0
1.881238884E0,-6.621099710E-1,-8.464090228E-1,-7.546880245E-1,1.313145789E0
1.886250347E0,-7.844420075E-1,-9.170740247E-1,-7.103430033E-1,1.400343248E0
1.891261732E0,-9.260699749E-1,-9.330409765E-1,-7.055029869E-1,1.491946891E0
1.896273345E0,-1.041282058E0,-9.399160147E-1,-7.543699741E-1,1.592728632E0
1.901284737E0,-1.105875969E0,-9.042329788E-1,-8.522019982E-1,1.663384256E0
1.906296196E0,-1.162749052E0,-8.426979780E-1,-9.871829748E-1,1.742600203E0
1.911307812E0,-1.192721009E0,-7.815740108E-1,-1.137904048E0,1.824353848E0
1.916319270E0,-1.205363989E0,-6.847440004E-1,-1.278429985E0,1.885778332E0
1.921330655E0,-1.188771009E0,-5.304629803E-1,-1.399513960E0,1.911336394E0
1.926342268E0,-1.176463962E0,-3.592360020E-1,-1.451182008E0,1.902379346E0
1.931353732E0,-1.133059978E0,-2.293089926E-1,-1.441362977E0,1.847683620E0
1.936365117E0,-1.069872975E0,-1.037689969E-1,-1.386088967E0,1.754035009E0
1.941376730E0,-1.022279024E0,2.964900061E-2,-1.309867024E0,1.661831847E0
1.946388193E0,-9.456760287E-1,1.451579928E-1,-1.211006999E0,1.543344403E0
1.951399807E0,-8.295080066E-1,2.002750039E-1,-1.099792004E0,1.392025884E0
1.956411188E0,-6.983960271E-1,2.496100068E-1,-1.009017944E0,1.252269691E0
1.961422573E0,-5.552719831E-1,2.624579966E-1,-9.057490230E-1,1.094345680E0
1.966434249E0,-4.029360116E-1,2.607940137E-1,-7.666879892E-1,9.045338135E-1
1.971445636E0,-2.742570043E-1,2.544319928E-1,-6.090310216E-1,7.147526345E-1
1.976457088E0,-1.845660061E-1,2.479539961E-1,-4.445979893E-1,5.414916129E-1
1.981468472E0,-1.444279999E-1,2.123070061E-1,-3.113040030E-1,4.035392103E-1
1.986480086E0,-1.267279983E-1,1.796700060E-1,-2.647059858E-1,3.441083485E-1
1.991491549E0,-1.495610029E-1,1.289550066E-1,-1.978919953E-1,2.795695425E-1
1.996502934E0,-2.208729982E-1,9.311000258E-2,-1.556980014E-1,2.858255089E-1
2.001514542E0,-2.786110044E-1,7.047100365E-2,-6.732799858E-2,2.951665860E-1
2.006526006E0,-3.624469936E-1,7.726100087E-2,5.675999913E-3,3.706336498E-1
2.011537619E0,-4.412840009E-1,4.886399955E-2,5.619199947E-2,4.475229611E-1
2.016549025E0,-5.035049915E-1,2.316999994E-2,7.049900293E-2,5.089442355E-1
2.021560409E0,-5.054510236E-1,1.844399981E-2,4.522899911E-2,5.078056525E-1
2.026572110E0,-4.976760149E-1,3.226599842E-2,2.828899957E-2,4.995225500E-1
2.031583573E0,-4.851169884E-1,7.397399843E-2,2.477099933E-2,4.913494147E-1
2.036594948E0,-5.168730021E-1,1.164880022E-1,-2.428900078E-2,5.303933545E-1
2.041606561E0,-5.360649824E-1,1.989099979E-1,-1.526779979E-1,5.918119834E-1
2.046617948E0,-5.269129872E-1,2.773709893E-1,-3.449870050E-1,6.881772994E-1
2.051629393E0,-5.160170197E-1,3.214029968E-1,-5.255420208E-1,8.035968309E-1
2.056641009E0,-4.640960097E-1,3.470639884E-1,-6.199399829E-1,8.486248292E-1
2.061652396E0,-3.839510083E-1,3.544610143E-1,-5.739880204E-1,7.762237017E-1
2.066663855E0,-2.507770061E-1,3.452759981E-1,-4.304369986E-1,6.061193211E-1
2.071675470E0,-1.426459998E-1,3.115850091E-1,-1.818919927E-1,3.879662307E-1
2.076686857E0,-6.090499833E-2,2.363879979E-1,2.095800042E-1,3.217335583E-1
2.081698317E0,9.555500001E-2,1.161329970E-1,6.829119921E-1,6.992756395E-1
2.086709698E0,2.387620062E-1,-5.544900149E-2,1.043990016E0,1.072379150E0
2.091721312E0,3.529210091E-1,-2.554509938E-1,1.325379014E0,1.395148014E0
2.096732775E0,3.992060125E-1,-4.468620121E-1,1.538306952E0,1.650890480E0
2.101744389E0,4.188160002E-1,-6.025509834E-1,1.658496022E0,1.813583079E0
2.106755775E0,4.216240048E-1,-6.930699944E-1,1.707121968E0,1.890073605E0
2.111767249E0,3.824220002E-1,-7.317000031E-1,1.688024998E0,1.879111459E0
2.116778635E0,3.350049853E-1,-7.502859831E-1,1.616322994E0,1.813189846E0
2.121790249E0,2.588259876E-1,-7.191600204E-1,1.464748025E0,1.652170936E0
2.126801717E0,1.408720016E-1,-6.742810011E-1,1.312083960E0,1.481912314E0
2.131813331E0,5.545999855E-3,-6.391180158E-1,1.179188013E0,1.341263198E0
2.136824784E0,-9.298899770E-2,-5.513190031E-1,1.106567979E0,1.239795261E0
2.141836169E0,-1.951310039E-1,-4.678649902E-1,1.072100997E0,1.185906533E0
2.146847782E0,-2.867580056E-1,-3.624109924E-1,1.051799059E0,1.148848616E0
2.151859251E0,-3.916800022E-1,-2.993479967E-1,1.004703999E0,1.119130275E0
2.156870864E0,-4.143800139E-1,-2.210679948E-1,9.882079959E-1,1.094137513E0
2.161882266E0,-3.711059988E-1,-1.606629938E-1,9.947940111E-1,1.073847002E0
2.166893725E0,-3.590979874E-1,-1.716980040E-1,1.044378042E0,1.117656953E0
2.171905121E0,-2.935029864E-1,-1.806890070E-1,1.061180949E0,1.115749760E0
2.176916734E0,-2.294099927E-1,-2.304410040E-1,1.061661959E0,1.110341441E0
2.181928107E0,-1.063880026E-1,-2.736960053E-1,1.017796040E0,1.059309534E0
2.186939797E0,-1.211799961E-2,-3.417710066E-1,9.344980121E-1,9.951084370E-1
2.191951189E0,2.153900079E-2,-4.396370053E-1,7.926880121E-1,9.066967021E-1
2.196962651E0,4.723399878E-2,-5.155619979E-1,5.956339836E-1,7.891863321E-1
2.201974035E0,1.161099970E-1,-5.703539848E-1,3.537380099E-1,6.811136316E-1
2.206985644E0,1.757420003E-1,-6.089630127E-1,1.221340001E-1,6.454749534E-1
2.211997107E0,2.149219960E-1,-6.288959980E-1,-8.978699893E-2,6.706439785E-1
2.217008721E0,1.854210049E-1,-6.496700048E-1,-3.152999878E-1,7.455643142E-1
2.222020092E0,2.095980048E-1,-5.888940096E-1,-5.386450291E-1,8.251460147E-1
2.227031552E0,2.140589952E-1,-4.523650110E-1,-7.397620082E-1,8.931423097E-1
2.232042933E0,1.575620025E-1,-3.279869854E-1,-9.145740271E-1,9.843002074E-1
2.237054547E0,1.460289955E-1,-1.774560064E-1,-1.067775011E0,1.092226431E0
2.242066006E0,1.177830026E-1,-1.002600044E-2,-1.194875002E0,1.200707969E0
2.247077620E0,6.410600245E-2,1.320060045E-1,-1.299020052E0,1.307282777E0
2.252088991E0,-4.203699902E-2,2.776609957E-1,-1.387712955E0,1.415842500E0
2.257100451E0,-1.712909937E-1,4.072149992E-1,-1.393327951E0,1.461686505E0
2.262111848E0,-3.068650067E-1,5.075560212E-1,-1.360147953E0,1.483840187E0
2.267123461E0,-4.091149867E-1,5.890259743E-1,-1.298447013E0,1.483337897E0
2.272134928E0,-5.067089796E-1,6.538389921E-1,-1.251113057E0,1.499847759E0
2.277146542E0,-5.973700285E-1,6.924570203E-1,-1.230124950E0,1.532825844E0
2.282157928E0,-6.671190262E-1,7.193750143E-1,-1.214061975E0,1.560927508E0
2.287169399E0,-7.096830010E-1,7.517579794E-1,-1.176988006E0,1.566553793E0
2.292180786E0,-7.233380079E-1,7.787370086E-1,-1.086527944E0,1.519931635E0
2.297192399E0,-6.715170145E-1,8.101180196E-1,-9.811969995E-1,1.438740372E0
2.302203863E0,-5.720279813E-1,8.363389969E-1,-8.777670264E-1,1.340579681E0
2.307215476E0,-4.026049972E-1,8.328440189E-1,-8.401859999E-1,1.249652935E0
2.312226863E0,-2.417149991E-1,7.991700172E-1,-8.536559939E-1,1.194080154E0
2.317238322E0,-1.171920002E-1,7.540349960E-1,-9.034169912E-1,1.182567123E0
2.322249938E0,-4.002799839E-2,7.047560215E-1,-9.609289765E-1,1.192337112E0
2.327261396E0,6.042300165E-2,6.569939852E-1,-9.649080038E-1,1.168905253E0
2.332272781E0,1.553820074E-1,6.251959801E-1,-9.441810250E-1,1.143018543E0
2.337284384E0,2.170580029E-1,5.765420198E-1,-8.851609826E-1,1.078436295E0
2.342295848E0,2.395430058E-1,5.066009760E-1,-8.122090101E-1,9.867668806E-1
2.347307232E0,2.099149972E-1,4.198909998E-1,-7.490180135E-1,8.839687451E-1
2.352318842E0,1.480620056E-1,3.447999954E-1,-6.737239957E-1,7.711766443E-1
2.357330305E0,8.967600018E-2,2.608020008E-1,-5.299940109E-1,5.974555383E-1
2.362341680E0,3.459599987E-2,1.746439934E-1,-3.963130116E-1,4.344668121E-1
2.367353293E0,3.370799869E-2,6.056199968E-2,-2.325450033E-1,2.426544117E-1
2.372364757E0,-2.807899937E-2,2.980000107E-3,-1.110560000E-1,1.145894661E-1
2.377376155E0,-5.818999931E-2,-5.552000180E-2,1.843000017E-2,8.251188718E-2
2.382387769E0,-8.966500312E-2,-8.241300285E-2,1.210680008E-1,1.717241295E-1
2.387399218E0,-1.223940030E-1,-1.026220024E-1,1.715980023E-1,2.344300359E-1
2.392410603E0,-1.608200073E-1,-1.094309986E-1,1.968179941E-1,2.767228596E-1
2.397422216E0,-1.745499969E-1,-9.370999783E-2,2.115720063E-1,2.898481999E-1
2.402433665E0,-1.782909930E-1,-6.302399933E-2,2.043009996E-1,2.783857057E-1
2.407445278E0,-1.724169999E-1,-1.988299936E-2,1.846999973E-1,2.534502802E-1
2.412456665E0,-1.293540001E-1,1.258600038E-2,1.926259995E-1,2.323696202E-1
2.417468130E0,-7.813599706E-2,3.960800171E-2,2.132579982E-1,2.305493475E-1
2.422479745E0,-6.076300144E-2,8.160399646E-2,1.639920026E-1,1.929889414E-1
2.427491209E0,-5.093799904E-2,1.551190019E-1,1.144369990E-1,1.993800673E-1
2.432502603E0,-5.531499907E-2,2.272109985E-1,8.313299716E-2,2.481847743E-1
2.437513988E0,-3.169300035E-2,2.902559936E-1,-5.998000037E-3,2.920427436E-1
2.442525601E0,-8.493999951E-3,3.456879854E-1,-2.047199942E-2,3.463977974E-1
2.447537065E0,3.759900108E-2,3.900139928E-1,4.075200111E-2,3.939356864E-1
2.452548692E0,7.567399740E-2,4.204779863E-1,7.754799724E-2,4.342142130E-1
2.457560079E0,1.059179977E-1,4.345499873E-1,1.020210013E-1,4.587598483E-1
2.462571538E0,1.051789969E-1,4.390389919E-1,1.025789976E-1,4.629690147E-1
2.467583154E0,9.989400208E-2,4.289380014E-1,8.423700184E-2,4.483999255E-1
2.472594617E0,8.776699752E-2,3.659270108E-1,1.352899987E-2,3.765483460E-1
2.477606002E0,8.053900301E-2,2.856650054E-1,-9.014599770E-2,3.101891798E-1
2.482617605E0,5.257200077E-2,2.096679956E-1,-1.980679929E-1,2.931815367E-1
2.487629069E0,1.839200035E-2,1.240430027E-1,-2.892050147E-1,3.152213075E-1
2.492640448E0,1.477999962E-3,5.807499960E-2,-3.282580078E-1,3.333589803E-1
2.497652062E0,-1.969200000E-2,-3.742999956E-2,-3.259319961E-1,3.286646404E-1
2.502663525E0,-2.168400027E-2,-1.211619973E-1,-2.757140100E-1,3.019414526E-1
2.507675129E0,-1.439699996E-2,-1.861730069E-1,-2.132409960E-1,2.834420302E-1
2.512686515E0,6.430999842E-3,-2.448139936E-1,-1.596129984E-1,2.923209853E-1
2.517697989E0,1.735099964E-2,-2.976100147E-1,-1.358180046E-1,3.275962582E-1
2.522709376E0,5.096700042E-2,-3.377610147E-1,-1.174890026E-1,3.612254198E-1
2.527720994E0,7.655599713E-2,-3.866539896E-1,-9.522099793E-2,4.054986643E-1
2.532732458E0,1.058650017E-1,-4.324800074E-1,-8.080100268E-2,4.525208917E-1
2.537744071E0,1.478839964E-1,-4.636090100E-1,-7.145500183E-2,4.918422591E-1
2.542755429E0,2.115709931E-1,-5.014029741E-1,-5.298399925E-2,5.467856360E-1
2.547766888E0,2.336139977E-1,-5.530940294E-1,-5.168500170E-2,6.026274510E-1
2.552778504E0,3.125250041E-1,-5.735449791E-1,-4.799100012E-2,6.549266046E-1
2.557789977E0,4.051119983E-1,-5.612090230E-1,-6.253000349E-2,6.949685605E-1
2.562801362E0,4.343329966E-1,-5.707939863E-1,-7.656700164E-2,7.213275487E-1
2.567812727E0,4.576719999E-1,-5.548300147E-1,-9.208600223E-2,7.251067760E-1
2.572824341E0,4.729799926E-1,-5.536429882E-1,-9.989300370E-2,7.349892816E-1
2.577835799E0,4.943099916E-1,-5.268629789E-1,-1.020350009E-1,7.296150408E-1
2.582847184E0,5.055180192E-1,-4.652869999E-1,-9.098099917E-2,6.930497834E-1
2.587858802E0,5.072259903E-1,-3.808850050E-1,-5.957600102E-2,6.371035176E-1
2.592870266E0,4.557409883E-1,-3.101660013E-1,-7.907199860E-2,5.569157725E-1
2.597881879E0,3.199230134E-1,-2.291540056E-1,-8.028800040E-2,4.016322396E-1
2.602893338E0,2.826499939E-1,-1.340080053E-1,-1.385969967E-1,3.421378260E-1
2.607904951E0,4.426999986E-1,-1.449189931E-1,-1.885039955E-1,5.025122483E-1
2.612916333E0,4.251979887E-1,-1.815890074E-1,-1.623280048E-1,4.900186511E-1
2.617927792E0,2.911970019E-1,-2.798469961E-1,-1.752589941E-1,4.402564595E-1
2.622939184E0,1.319770068E-1,-4.018090069E-1,-2.317080051E-1,4.822416490E-1
2.627950797E0,9.893500060E-2,-4.219340086E-1,-2.726120055E-1,5.119899877E-1
2.632962184E0,5.657700077E-2,-4.450069964E-1,-2.961719930E-1,5.375407271E-1
2.637973644E0,-4.749599844E-2,-5.321429968E-1,-3.228909969E-1,6.242520603E-1
2.642985259E0,-6.262499839E-2,-5.409569740E-1,-3.704789877E-1,6.586433166E-1
2.647996723E0,-5.851300061E-2,-5.098149776E-1,-4.029349983E-1,6.524505311E-1
2.653008340E0,-4.933099821E-2,-4.550499916E-1,-3.896029890E-1,6.010778080E-1
2.658019727E0,-3.243000060E-2,-3.502990007E-1,-3.401159942E-1,4.893260512E-1
2.663031186E0,1.068899967E-2,-1.941040009E-1,-3.060790002E-1,3.625947770E-1
2.668042801E0,1.672499999E-2,-4.868499935E-2,-2.899830043E-1,2.945167187E-1
2.673054204E0,3.555399925E-2,1.367940009E-1,-2.086620033E-1,2.520248344E-1
2.678065664E0,6.928099692E-2,3.386720121E-1,-9.826800227E-2,3.593816754E-1
2.683077283E0,8.510600030E-2,5.041419864E-1,-3.525999933E-2,5.124894548E-1
2.688088747E0,1.021360010E-1,6.407439709E-1,2.304700017E-2,6.492424533E-1
2.693100136E0,8.762899786E-2,7.293990254E-1,4.780400172E-2,7.361976651E-1
2.698111750E0,9.316799790E-2,7.962610126E-1,3.928000107E-2,8.026548414E-1
2.703123136E0,8.785899729E-2,8.440619707E-1,4.256200045E-2,8.496889653E-1
2.708134601E0,9.489899874E-2,8.543099761E-1,6.179200113E-2,8.617828071E-1
2.713146216E0,9.280800074E-2,8.354049921E-1,1.530600041E-1,8.543665435E-1
2.718157680E0,8.389600366E-2,7.868400216E-1,1.972659975E-1,8.155180150E-1
2.723169064E0,8.900099993E-2,7.084490061E-1,2.090039998E-1,7.439783896E-1
2.728180678E0,7.036600262E-2,6.066439748E-1,1.555639952E-1,6.302130141E-1
2.733192165E0,3.294400126E-2,4.769549966E-1,9.400600195E-2,4.872458357E-1
2.738203550E0,-1.570300013E-2,3.551869988E-1,3.396200016E-2,3.571523566E-1
2.743215154E0,-5.910599977E-2,2.226710021E-1,-3.524000058E-3,2.304090124E-1
2.748226618E0,-1.136429980E-1,1.005740017E-1,-5.876399949E-2,1.627361928E-1
2.753238312E0,-1.510699987E-1,-1.796299964E-2,-9.377399832E-2,1.787131127E-1
2.758249699E0,-1.856720001E-1,-1.137569994E-1,-1.038210019E-1,2.412333869E-1
2.763261098E0,-1.917649955E-1,-1.774960011E-1,-1.076999977E-1,2.826268448E-1
2.768272712E0,-1.909590065E-1,-2.285140008E-1,-1.099829972E-1,3.174590531E-1
2.773284175E0,-1.856299937E-1,-2.598150074E-1,-9.849900007E-2,3.341622146E-1
2.778295555E0,-1.642750055E-1,-2.647300065E-1,-9.897899628E-2,3.269022720E-1
2.783307245E0,-1.295589954E-1,-2.553460002E-1,-9.451200068E-2,3.015288234E-1
2.788318632E0,-1.003720015E-1,-2.323980033E-1,-1.154339984E-1,2.782236126E-1
2.793330259E0,-5.568400025E-2,-1.935400069E-1,-1.257580072E-1,2.374310816E-1
2.798341646E0,-1.680199988E-2,-1.578990072E-1,-1.374879926E-1,2.100413097E-1
2.803353106E0,1.424400043E-2,-1.325079948E-1,-1.484239995E-1,1.994766750E-1
2.808364502E0,4.239200056E-2,-1.123569980E-1,-1.444640011E-1,1.878590544E-1
2.813376116E0,6.766200066E-2,-9.982600063E-2,-1.495530009E-1,1.921183927E-1
2.818387579E0,9.955299646E-2,-7.806800306E-2,-1.374650002E-1,1.868208727E-1
2.823399202E0,1.098660007E-1,-8.291800320E-2,-1.418150067E-1,1.976295259E-1
2.828410665E0,1.363019943E-1,-8.345399797E-2,-1.503749937E-1,2.194434828E-1
2.833422279E0,1.249530017E-1,-9.887900203E-2,-1.751559973E-1,2.367909058E-1
2.838433665E0,1.092989966E-1,-1.103480011E-1,-2.230080068E-1,2.717637266E-1
2.843445050E0,9.414800256E-2,-1.200139970E-1,-2.511219978E-1,2.938187599E-1
2.848456509E0,4.458300024E-2,-1.277460009E-1,-2.693020105E-1,3.013805859E-1
2.853468125E0,3.130200133E-2,-1.143720001E-1,-2.726869881E-1,2.973532633E-1
2.858479588E0,6.738999858E-3,-8.740200102E-2,-2.800939977E-1,2.934913482E-1
2.863490973E0,-4.735200107E-2,-6.117099896E-2,-2.820540071E-1,2.924697694E-1
2.868502581E0,-8.598700166E-2,-2.370700054E-2,-2.809149921E-1,2.947355070E-1
2.873514045E0,-8.877199888E-2,2.976300009E-2,-2.645959854E-1,2.806730116E-1
2.878525644E0,-1.123770028E-1,9.905800223E-2,-2.473119944E-1,2.891440837E-1
2.883537031E0,-1.235660017E-1,1.629039943E-1,-2.221460044E-1,3.019190544E-1
2.888548485E0,-1.481759995E-1,1.975869983E-1,-2.109100074E-1,3.247765077E-1
2.893560101E0,-1.672659963E-1,2.251670063E-1,-1.758719981E-1,3.310725811E-1
2.898571559E0,-1.438080072E-1,2.459360063E-1,-1.315920055E-1,3.138179696E-1
2.903582944E0,-1.185140014E-1,2.528139949E-1,-9.015300125E-2,2.934076484E-1
2.908594557E0,-9.377700090E-2,2.528089881E-1,-6.571800262E-2,2.775344415E-1
2.913606012E0,-5.805400014E-2,2.269500047E-1,-6.084199995E-2,2.420295860E-1
2.918617397E0,-4.880100116E-2,1.921419948E-1,-5.184499919E-2,2.049097065E-1
2.923629010E0,-5.358599871E-2,1.578129977E-1,-5.536499992E-2,1.756180080E-1
2.928640453E0,-5.348800123E-2,1.075190008E-1,-6.454599649E-2,1.363359361E-1
2.933652067E0,-6.259299815E-2,4.864500090E-2,-7.247100025E-2,1.074070082E-1
2.938663440E0,-6.198199838E-2,5.142000038E-3,-7.196699828E-2,9.511812198E-2
2.943674899E0,-7.057400048E-2,-3.466400132E-2,-5.141999945E-2,9.394838410E-2
2.948686509E0,-8.112899959E-2,-7.094900310E-2,-3.934999928E-2,1.147349034E-1
2.953697973E0,-7.968000323E-2,-1.249779984E-1,-2.646099962E-2,1.505609096E-1
2.958709358E0,-8.058399707E-2,-1.706009954E-1,-1.255500037E-2,1.890928562E-1
2.963720957E0,-8.841200173E-2,-2.005950063E-1,2.144699916E-2,2.202612367E-1
2.968732421E0,-9.374000132E-2,-2.274630070E-1,2.830299921E-2,2.476442350E-1
2.973744034E0,-7.811199874E-2,-2.627840042E-1,5.550599843E-2,2.797102663E-1
2.978755421E0,-6.771799922E-2,-2.737550139E-1,6.554000080E-2,2.895220661E-1
2.983767111E0,-6.009399891E-2,-2.938680053E-1,7.035800070E-2,3.080908007E-1
2.988778498E0,-4.822900146E-2,-3.042390049E-1,7.265099883E-2,3.164894568E-1
2.993789882E0,-3.694399819E-2,-3.123790026E-1,6.561700255E-2,3.213270783E-1
2.998801342E0,-2.159499936E-2,-3.162020147E-1,4.002999887E-2,3.194565055E-1
3.003812952E0,-2.310599945E-2,-3.205389977E-1,1.024699956E-2,3.215340374E-1
3.008824416E0,-1.770099998E-2,-3.158740103E-1,-6.914000027E-3,3.164451283E-1
3.013835800E0,-1.029099990E-2,-3.048810065E-1,-4.463500157E-2,3.083027995E-1
3.018847399E0,-8.060000255E-4,-2.876850069E-1,-8.125299960E-2,2.989404000E-1
3.023858862E0,-1.948500052E-2,-2.490449995E-1,-1.989309937E-1,3.193377793E-1
3.028870467E0,-3.522099927E-2,-2.092429996E-1,-2.435140014E-1,3.229895053E-1
3.033881853E0,-5.036300048E-2,-1.678159982E-1,-2.657650113E-1,3.183232356E-1
3.038893313E0,-6.489200145E-2,-1.242500022E-1,-2.542839944E-1,2.903607837E-1
3.043904913E0,-6.715700030E-2,-8.737099916E-2,-1.979009956E-1,2.265139251E-1
3.048916300E0,-7.393000275E-2,-5.530099943E-2,-1.726229936E-1,1.957614461E-1
3.053927735E0,-3.861000016E-2,-6.639999803E-3,-1.446940005E-1,1.499038875E-1
3.058939351E0,-1.812800020E-2,2.764399908E-2,-1.167040020E-1,1.212956684E-1
3.063950804E0,1.583700068E-2,5.047599971E-2,-6.288699806E-2,8.217914372E-2
3.068962189E0,1.858800091E-2,4.710600153E-2,-4.987299815E-2,7.107605154E-2
3.073973817E0,-4.399999976E-3,3.846399859E-2,-8.422599733E-2,9.269766887E-2
3.078985281E0,-3.839199990E-2,2.450300008E-2,-1.276369989E-1,1.355195416E-1
3.083996894E0,-6.681200117E-2,5.429000128E-3,-1.707479954E-1,1.834344446E-1
3.089008281E0,-9.673400223E-2,-9.053000249E-3,-2.065329999E-1,2.282439573E-1
3.094019726E0,-1.280989945E-1,-2.345599979E-2,-2.329030037E-1,2.668395500E-1
3.099031341E0,-1.260180026E-1,-4.236000031E-2,-2.524020076E-1,2.852747448E-1
3.104042799E0,-1.402489990E-1,-4.119300097E-2,-2.131360024E-1,2.584445793E-1
3.109054413E0,-1.447090060E-1,-6.509499997E-2,-1.704850048E-1,2.329016794E-1
3.114065876E0,-1.397819966E-1,-7.618500292E-2,-1.431120038E-1,2.140658938E-1
3.119077290E0,-1.350679994E-1,-6.787099689E-2,-1.303640008E-1,1.996111454E-1
3.124088903E0,-1.236139983E-1,-6.664100289E-2,-1.320420057E-1,1.927603048E-1
3.129100367E0,-1.287830025E-1,-6.309399754E-2,-1.384290010E-1,1.993201008E-1
3.134111995E0,-1.199859977E-1,-6.418299675E-2,-1.305920035E-1,1.886010819E-1
3.139123382E0,-1.232040003E-1,-7.905499637E-2,-9.945400059E-2,1.769746207E-1
3.144134842E0,-1.171469986E-1,-9.344500303E-2,-7.121700048E-2,1.659133781E-1
3.149146460E0,-1.090530008E-1,-1.119050011E-1,-2.699000016E-2,1.585677974E-1
3.154157847E0,-9.198299795E-2,-1.203709990E-1,7.247000001E-3,1.516659761E-1
3.159169537E0,-6.619200110E-2,-1.242749989E-1,5.900999997E-3,1.409272087E-1
3.164180924E0,-5.745999888E-2,-1.306339949E-1,1.661499962E-2,1.436765476E-1
3.169192385E0,-3.736399859E-2,-1.466169953E-1,1.307400037E-2,1.518668535E-1
3.174203998E0,-1.557299960E-2,-1.531990021E-1,7.379999850E-3,1.541652262E-1
3.179215390E0,-1.071400009E-2,-1.485970020E-1,-2.855099924E-2,1.516938310E-1
3.184226850E0,9.970000247E-4,-1.495320052E-1,-7.320400327E-2,1.664921640E-1
3.189238465E0,1.231999975E-2,-1.508989930E-1,-1.029990017E-1,1.831149444E-1
3.194249852E0,1.873400062E-2,-1.336269975E-1,-1.250550002E-1,1.839725259E-1
3.199261311E0,2.034899965E-2,-1.168889999E-1,-1.465220004E-1,1.885359825E-1
3.204272927E0,1.271400042E-2,-1.168640032E-1,-1.513029933E-1,1.916022882E-1
3.209284390E0,1.229699980E-2,-1.024560034E-1,-1.417589933E-1,1.753398443E-1
3.214296004E0,-8.918000385E-3,-9.269499779E-2,-1.252389997E-1,1.560663333E-1
3.219307482E0,-1.551000029E-2,-8.525399864E-2,-1.159949973E-1,1.447882723E-1
3.224318867E0,-1.487100031E-2,-7.282900065E-2,-9.740199894E-2,1.225249337E-1
3.229330557E0,-9.553999640E-3,-6.991600245E-2,-8.843600005E-2,1.131390844E-1
3.234341953E0,2.613000106E-3,-7.855299860E-2,-6.793700159E-2,1.038885824E-1
3.239353566E0,5.251000170E-3,-7.306999713E-2,-7.828900218E-2,1.072192396E-1
3.244364963E0,1.709499955E-2,-7.235100120E-2,-7.428199798E-2,1.050938705E-1
3.249376422E0,3.551900014E-2,-8.354199678E-2,-8.225800097E-2,1.225040543E-1
3.254388038E0,3.937000036E-2,-8.761800081E-2,-8.775699884E-2,1.301084234E-1
3.259399448E0,3.141300008E-2,-9.169299901E-2,-9.087300301E-2,1.328619032E-1
3.264410908E0,2.828699909E-2,-9.110999852E-2,-1.010319963E-1,1.389555700E-1
3.269422523E0,8.844999596E-3,-9.981100261E-2,-9.478499740E-2,1.379299315E-1
3.274433982E0,1.490999945E-3,-1.084719971E-1,-1.053389981E-1,1.512107859E-1
3.279445595E0,-3.421999980E-3,-1.118320003E-1,-8.056800067E-2,1.378742511E-1
3.284456982E0,5.605999846E-3,-1.126369983E-1,-7.987199724E-2,1.381957183E-1
3.289468441E0,2.771999920E-3,-1.154830009E-1,-6.520900130E-2,1.326507494E-1
3.294480057E0,-4.606999923E-3,-1.017680019E-1,-6.710600108E-2,1.219883849E-1
3.299491443E0,-1.407899987E-2,-1.022080034E-1,-6.206399947E-2,1.204019694E-1
3.304502917E0,-1.863200031E-2,-1.003419980E-1,-7.129400223E-2,1.244929828E-1
3.309514532E0,-2.105999971E-3,-1.127789989E-1,-8.294200152E-2,1.400104048E-1
3.314526001E0,5.900000178E-5,-9.888999909E-2,-7.545100152E-2,1.243868523E-1
3.319537614E0,6.916999817E-3,-8.477400243E-2,-5.384000018E-2,1.006639061E-1
3.324549078E0,2.545000054E-2,-9.321600199E-2,2.851600014E-2,1.007476442E-1
3.329560458E0,4.606100172E-2,-1.054769978E-1,9.549299628E-2,1.495524165E-1
3.334572072E0,5.685599893E-2,-1.292899996E-1,1.213650033E-1,1.862202262E-1
3.339583535E0,5.582199991E-2,-1.390720010E-1,1.069120020E-1,1.840850165E-1
3.344594929E0,6.424900144E-2,-1.358010024E-1,4.363200068E-2,1.564403973E-1
3.349606542E0,5.379299819E-2,-1.503369957E-1,-3.527199849E-2,1.635206801E-1
3.354618006E0,5.516999960E-2,-1.557330042E-1,-6.584200263E-2,1.778529358E-1
3.359629624E0,5.875999853E-2,-1.402660012E-1,-1.028480008E-1,1.835892148E-1
3.364641011E0,8.779899776E-2,-1.176619977E-1,-9.188999981E-2,1.731957903E-1
3.369652485E0,6.749799848E-2,-1.066330001E-1,-5.748499930E-2,1.386762476E-1
3.374664100E0,6.198000163E-3,-1.055840030E-1,-7.782600075E-2,1.313136828E-1
3.379675554E0,-6.879999768E-3,-9.544300288E-2,-9.288699925E-2,1.333592735E-1
3.384687168E0,8.196000010E-3,-7.408499718E-2,-1.190690026E-1,1.404748682E-1
3.389698631E0,9.016999975E-3,-5.745400116E-2,-1.022489965E-1,1.176313131E-1
3.394710245E0,-1.092499960E-2,-4.584600031E-2,-9.958299994E-2,1.101725249E-1
3.399721631E0,-2.793500014E-2,-5.140599981E-2,-1.300069988E-1,1.425649353E-1
3.404733091E0,-2.736999886E-3,-4.025100172E-2,-1.268299967E-1,1.330920072E-1
3.409744691E0,4.025299847E-2,-1.725400053E-2,-1.114619970E-1,1.197571760E-1
3.414756155E0,4.250599816E-2,-2.262100019E-2,-9.167999774E-2,1.035552583E-1
3.419767768E0,7.245799899E-2,-4.403499886E-2,-5.822899938E-2,1.028584421E-1
3.424779146E0,1.130620018E-1,-4.809400067E-2,-2.055400051E-2,1.245733362E-1
3.429790531E0,1.199579984E-1,-3.310799971E-2,2.885000082E-3,1.244764405E-1
3.434802211E0,1.381320059E-1,-5.355900154E-2,2.827800065E-2,1.508265992E-1
3.439813674E0,1.579910070E-1,-4.730299860E-2,7.723399997E-2,1.821093702E-1
3.444825059E0,1.448809952E-1,-2.918899991E-2,1.190909967E-1,1.898029662E-1
3.449836663E0,8.788499981E-2,-6.292200089E-2,1.419899985E-2,1.090163427E-1
3.454848126E0,8.091899753E-2,-1.029530019E-1,-1.177640036E-1,1.761123655E-1
3.459859744E0,9.239199758E-2,-1.286730021E-1,-1.562989950E-1,2.225362859E-1
3.464871208E0,7.323600352E-2,-1.278239936E-1,-1.544539928E-1,2.134444224E-1
3.469882598E0,6.387999654E-2,-1.027669981E-1,-1.289969981E-1,1.768669991E-1
3.474894211E0,4.318999872E-2,-1.012789980E-1,-1.135469973E-1,1.581636242E-1
3.479905675E0,3.244400024E-2,-8.542899787E-2,-1.029149964E-1,1.376307499E-1
3.484917059E0,1.741999947E-2,-6.958600134E-2,-8.752699941E-2,1.131664420E-1
3.489928673E0,-1.665999996E-3,-6.812400371E-2,-8.891700208E-2,1.120262857E-1
3.494940145E0,-1.769799925E-2,-6.450899690E-2,-9.966900200E-2,1.200355773E-1
3.499951759E0,-4.470200092E-2,-6.061600149E-2,-8.447299898E-2,1.131735662E-1
3.504963117E0,-4.051199928E-2,-5.905000120E-2,-7.892700285E-2,1.065720250E-1
3.509974577E0,-4.320099950E-2,-6.218300015E-2,-7.588899881E-2,1.072016418E-1
3.514986201E0,-4.575600103E-2,-5.339200050E-2,-7.281500101E-2,1.012242151E-1
3.519997665E0,-4.814200103E-2,-5.641400069E-2,-6.034599990E-2,9.561292507E-2
3.525009273E0,-4.811599851E-2,-6.203699857E-2,-7.636900246E-2,1.095260838E-1
3.530020660E0,-3.406000137E-2,-6.997799873E-2,-8.526600152E-2,1.154439042E-1
3.535032341E0,-3.435000032E-2,-5.898300186E-2,-9.393899888E-2,1.161182696E-1
3.540043728E0,-2.289699949E-2,-5.275800079E-2,-9.304100275E-2,1.093814766E-1
3.545055198E0,-2.103799954E-2,-4.205600172E-2,-1.085579991E-1,1.183052995E-1
3.550066812E0,-1.912399940E-2,-5.267100036E-2,-1.123490036E-1,1.255478404E-1
3.555078275E0,-2.886899933E-2,-5.822199956E-2,-1.068940014E-1,1.250981530E-1
3.560089889E0,-4.292999953E-2,-6.608600169E-2,-1.135179996E-1,1.381907404E-1
3.565101352E0,-4.949500039E-2,-5.002000183E-2,-1.034180000E-1,1.250881225E-1
3.570112742E0,-5.584499985E-2,-5.032299832E-2,-8.177900314E-2,1.110804822E-1
3.575124355E0,-5.972899869E-2,-5.537499860E-2,-8.650600165E-2,1.188159588E-1
3.580135819E0,-6.818199903E-2,-5.799499899E-2,-8.889400214E-2,1.261520849E-1
3.585147432E0,-6.487400085E-2,-5.294200033E-2,-5.830400065E-2,1.020335625E-1
3.590158896E0,-6.633400172E-2,-5.243400112E-2,-3.993900120E-2,9.351282305E-2
3.595170284E0,-6.786199659E-2,-4.944499955E-2,-2.884100005E-2,8.877985045E-2
3.600181898E0,-7.180999964E-2,-4.166100174E-2,-1.296500023E-2,8.402622416E-2
3.605193371E0,-6.652399898E-2,-4.126299918E-2,-1.837600023E-2,8.040991808E-2
3.610204756E0,-7.552099973E-2,-4.775999859E-2,2.222999930E-3,8.938333510E-2
3.615216369E0,-7.275500149E-2,-4.715799913E-2,1.096099988E-2,8.739170808E-2
3.620227833E0,-6.557500362E-2,-6.567700207E-2,5.340000149E-3,9.296270921E-2
3.625239446E0,-5.633400008E-2,-8.152499795E-2,1.858600043E-2,1.008230344E-1
3.630250910E0,-5.440900102E-2,-9.370400012E-2,-6.505600363E-2,1.263845823E-1
3.635262523E0,-6.648799777E-2,-9.287499636E-2,-1.520469934E-1,1.901702053E-1
3.640273910E0,-7.587300241E-2,-7.627499849E-2,-2.116699964E-1,2.374421514E-1
3.645285340E0,-7.803300023E-2,-7.410400361E-2,-2.353219986E-1,2.587604983E-1
3.650296956E0,-7.541099936E-2,-9.648200125E-2,-1.627870053E-1,2.037037174E-1
3.655308414E0,-4.736600071E-2,-8.879200369E-2,-7.970000058E-2,1.283730814E-1
3.660319799E0,-2.728199959E-2,-9.323500097E-2,-1.040610000E-1,1.423578752E-1
3.665331489E0,6.153999828E-3,-8.578799665E-2,-1.067399979E-1,1.370798279E-1
3.670343105E0,4.097000137E-2,-7.560899854E-2,-8.579400182E-2,1.214737520E-1
3.675354491E0,5.400300026E-2,-7.702200115E-2,-5.806099996E-2,1.105431699E-1
3.680365948E0,6.659299880E-2,-8.317200094E-2,-6.145599857E-2,1.230001991E-1
3.685377561E0,5.784099922E-2,-8.973799646E-2,-9.073600173E-2,1.401124948E-1
3.690389025E0,4.003899917E-2,-8.730100095E-2,-1.290040016E-1,1.608310252E-1
3.695400438E0,2.970699966E-2,-9.233900160E-2,-1.621810049E-1,1.889753301E-1
3.700412052E0,1.510700025E-2,-9.516400099E-2,-1.880200058E-1,2.112721731E-1
3.705423515E0,1.014000038E-3,-8.809100091E-2,-1.759579927E-1,1.967797444E-1
3.710435129E0,1.291000005E-2,-7.558900118E-2,-1.406430006E-1,1.601899461E-1
3.715446592E0,3.738000058E-3,-7.179299742E-2,-9.193799645E-2,1.167081930E-1
3.720457968E0,1.949999947E-3,-6.237599999E-2,-3.218699992E-2,7.021802360E-2
3.725469581E0,2.612000098E-3,-5.261800066E-2,-3.914000001E-3,5.282798438E-2
3.730481045E0,-1.280600019E-2,-3.066500090E-2,4.081799835E-2,5.263501601E-2
3.735492662E0,-2.536099963E-2,-3.043100052E-2,3.786500171E-2,5.479949314E-2
3.740504126E0,-6.078999862E-2,-1.646300033E-2,2.355599962E-2,6.724090593E-2
3.745515739E0,-8.363199979E-2,-1.481899992E-2,1.677699946E-2,8.657587342E-2
3.750527117E0,-9.670999646E-2,-2.967000008E-2,3.364299983E-2,1.066066778E-1
3.755538807E0,-1.095660031E-1,-3.760199994E-2,3.163700178E-2,1.200813029E-1
3.760550194E0,-1.129759997E-1,-6.232099980E-2,2.489499934E-2,1.314048877E-1
3.765561645E0,-1.118210033E-1,-8.224400133E-2,2.294299938E-2,1.406925504E-1
3.770573259E0,-1.015710011E-1,-1.048239991E-1,-2.260000037E-4,1.459616050E-1
3.775584645E0,-9.649299830E-2,-1.108539999E-1,-8.799999952E-3,1.472309343E-1
3.780596110E0,-7.771299779E-2,-1.313299984E-1,-2.441699989E-2,1.545414779E-1
3.785607725E0,-6.889600307E-2,-1.473259926E-1,-5.164700001E-2,1.706429604E-1
3.790619189E0,-4.882699996E-2,-1.590290070E-1,-9.026899934E-2,1.892691027E-1
3.795630807E0,-1.775800064E-2,-1.399150044E-1,-9.262800217E-2,1.687350047E-1
3.800642194E0,-2.924500033E-2,-1.402840018E-1,-1.137960032E-1,1.829874355E-1
3.805653638E0,-6.110699847E-2,-1.479229927E-1,-1.301459968E-1,2.062844093E-1
3.810665254E0,-4.542500153E-2,-1.271959990E-1,-1.365299970E-1,1.920486735E-1
3.815676722E0,-3.703099862E-2,-1.157670021E-1,-1.168799996E-1,1.686245176E-1
3.820688336E0,-1.709100045E-2,-1.200710014E-1,-6.240800023E-2,1.363961369E-1
3.825699717E0,-1.377900038E-2,-1.495870054E-1,-1.631500013E-2,1.511036474E-1
3.830711177E0,3.607999999E-3,-1.642680019E-1,7.745000068E-3,1.644900579E-1
3.835722802E0,1.951999962E-3,-1.599970013E-1,1.286199968E-2,1.605250191E-1
3.840734266E0,2.832799964E-2,-1.201760024E-1,3.514099866E-2,1.283730381E-1
3.845745879E0,6.789299846E-2,-9.061700106E-2,2.711899951E-2,1.164316978E-1
3.850757362E0,7.386600226E-2,-5.895499885E-2,4.334399849E-2,1.039739409E-1
3.855768746E0,8.438800275E-2,-3.060900047E-2,1.271599997E-2,9.066389896E-2
3.860780360E0,8.532000333E-2,-1.230899990E-2,-6.510000094E-4,8.620579011E-2
3.865791843E0,7.457099855E-2,-1.323700044E-2,-1.155200042E-2,7.661266683E-2
3.870803228E0,6.628499925E-2,-9.779999964E-3,-3.638099879E-2,7.624255110E-2
3.875814841E0,6.047600135E-2,-4.199000075E-3,-5.613999814E-2,8.262371168E-2
3.880826305E0,5.006400123E-2,-3.530000104E-3,-7.098899782E-2,8.693850086E-2
3.885837918E0,4.214800149E-2,-6.500000018E-4,-9.043099731E-2,9.977295127E-2
3.890849368E0,3.909600154E-2,-1.416699961E-2,-9.350799769E-2,1.023374166E-1
3.895860981E0,3.843899816E-2,-1.812399924E-2,-1.085349992E-1,1.165584917E-1
3.900872430E0,4.242600128E-2,-1.981000043E-2,-1.234209985E-1,1.320043354E-1
3.905884043E0,4.866199940E-2,-4.502100125E-2,-1.291629970E-1,1.451825077E-1
3.910895430E0,4.545899853E-2,-5.787000060E-2,-1.209829971E-1,1.416062961E-1
3.915906875E0,4.007000104E-2,-8.025000244E-2,-1.439670026E-1,1.696236001E-1
3.920918491E0,3.014799953E-2,-9.523300081E-2,-1.408769935E-1,1.726978680E-1
3.925929954E0,2.988399938E-2,-1.098909974E-1,-1.309659928E-1,1.735545332E-1
3.930941582E0,3.186000139E-2,-1.281850040E-1,-6.964199990E-2,1.493200023E-1
3.935952968E0,4.077199847E-2,-1.425590068E-1,2.833499946E-2,1.509579361E-1
3.940964664E0,4.698500037E-2,-1.758120060E-1,3.751299903E-2,1.858081721E-1
3.945976127E0,4.825000092E-2,-1.717450023E-1,-2.508000005E-3,1.784115984E-1
3.950987512E0,4.706899822E-2,-1.594730020E-1,-6.259100139E-2,1.776647472E-1
3.955999125E0,3.655600175E-2,-1.483750045E-1,-1.238169968E-1,1.966777362E-1
3.961010589E0,2.403499931E-2,-1.262239963E-1,-1.601549983E-1,2.053285219E-1
3.966022197E0,2.569700032E-2,-1.138600037E-1,-1.675350070E-1,2.041872053E-1
3.971033584E0,8.584000170E-3,-1.063880026E-1,-1.772129983E-1,2.068732436E-1
3.976045274E0,-1.264899969E-2,-8.458899707E-2,-1.629669964E-1,1.840476502E-1
3.981056671E0,-2.399200015E-2,-5.790900066E-2,-1.368779987E-1,1.505478494E-1
3.986068361E0,-3.040700033E-2,-3.625800088E-2,-1.320710033E-1,1.402924738E-1
3.991079733E0,-5.050399899E-2,-4.293800145E-2,-1.205379963E-1,1.375635651E-1
3.996091194E0,-5.836699903E-2,-2.803900093E-2,-1.090660021E-1,1.268396033E-1
4.001102808E0,-6.819999963E-2,-8.318999782E-3,-8.808299899E-2,1.117097150E-1
4.006114286E0,-8.005099744E-2,-9.863999672E-3,-7.698799670E-2,1.115016247E-1
4.011125671E0,-7.515899837E-2,-1.668000012E-3,-5.889499933E-2,9.550014767E-2
4.016137264E0,-6.572999805E-2,-1.686000079E-2,-4.137200117E-2,7.947537198E-2
4.021148728E0,-7.042700052E-2,-2.693800069E-2,-2.661100030E-2,7.996101313E-2
4.026160341E0,-3.085800074E-2,-5.786100030E-2,-7.741000038E-3,6.603055843E-2
4.031171820E0,-1.569000073E-2,-6.000100076E-2,-8.839999791E-4,6.202481496E-2
4.036183433E0,8.320000023E-3,-8.347900212E-2,-8.555999957E-3,8.432776133E-2
4.041194805E0,1.999099925E-2,-9.254500270E-2,-1.148100011E-2,9.537311434E-2
4.046206264E0,4.053900018E-2,-1.154510006E-1,1.825000043E-3,1.223751393E-1
4.051217880E0,5.808100104E-2,-1.357149929E-1,5.399999791E-4,1.476219956E-1
4.056229276E0,6.341399997E-2,-1.227469966E-1,-5.222000182E-3,1.382585616E-1
4.061240967E0,6.609299779E-2,-1.218819991E-1,-1.082199998E-2,1.390705639E-1
4.066252333E0,5.465099961E-2,-1.140080020E-1,-1.385699958E-2,1.271871562E-1
4.071263795E0,3.427800164E-2,-1.016589999E-1,-2.377199940E-2,1.098846742E-1
4.076275398E0,2.848899923E-2,-9.889400005E-2,-2.172200009E-2,1.051831337E-1
4.081286862E0,-5.011000205E-3,-9.391099960E-2,-2.911300026E-2,9.844771583E-2
4.086298494E0,-1.423399989E-2,-8.183000237E-2,-1.968899928E-2,8.536048695E-2
4.091309881E0,-2.073399909E-2,-7.017900050E-2,-3.613900021E-2,8.161506090E-2
4.096321340E0,-2.470999956E-2,-5.640000105E-2,-4.274100065E-2,7.495556906E-2
4.101332961E0,-2.845099941E-2,-4.560799897E-2,-6.785599887E-2,8.656780880E-2
4.106344424E0,-3.891000152E-2,-2.809399925E-2,-8.293099701E-2,9.581655012E-2
4.111356038E0,-4.199599847E-2,-1.319599990E-2,-8.580999821E-2,9.644249113E-2
4.116367501E0,-4.955700040E-2,-1.288899966E-2,-1.052049994E-1,1.170047628E-1
4.121378891E0,-4.983000085E-2,-2.014099993E-2,-1.385460049E-1,1.486058018E-1
4.126390504E0,-4.312799871E-2,-2.009600028E-2,-1.313229948E-1,1.396767786E-1
4.131401968E0,-3.440000117E-2,-2.939400077E-2,-1.362899989E-1,1.436047742E-1
4.136413571E0,-3.518899903E-2,-4.091800004E-2,-1.414390057E-1,1.513854046E-1
4.141425035E0,-3.364200145E-2,-5.213100091E-2,-1.373499930E-1,1.507131251E-1
4.146436419E0,-2.527800016E-2,-7.479999959E-2,-1.290059984E-1,1.512500078E-1
4.151448091E0,-2.413599938E-2,-9.462799877E-2,-1.187530011E-1,1.537507069E-1
4.156459706E0,-1.843699999E-2,-9.071400017E-2,-1.274279952E-1,1.575018945E-1
4.161471093E0,-1.063400041E-2,-1.055300012E-1,-1.150010005E-1,1.564445372E-1
4.166482559E0,-7.776000071E-3,-9.867200255E-2,-1.003199965E-1,1.409281092E-1
4.171494173E0,-1.891800016E-2,-9.427700192E-2,-9.994100034E-2,1.386875891E-1
4.176505636E0,-2.740800008E-2,-9.476500005E-2,-1.114350036E-1,1.488266230E-1
4.181517011E0,-2.862899937E-2,-9.040600061E-2,-1.086430028E-1,1.442087605E-1
4.186528701E0,-3.212400153E-2,-7.662200183E-2,-1.080890000E-1,1.363309010E-1
4.191540088E0,-3.318500146E-2,-7.467400283E-2,-1.005010009E-1,1.295295418E-1
4.196551701E0,-2.956400067E-2,-7.712300122E-2,-8.614999801E-2,1.193474324E-1
4.201563160E0,-1.673699915E-2,-8.417099714E-2,-8.155500144E-2,1.183896202E-1
4.206574773E0,-3.213800117E-2,-8.847700059E-2,-6.779400259E-2,1.160045583E-1
4.211586256E0,-2.386300080E-2,-7.868400216E-2,-7.048799843E-2,1.083013062E-1
4.216597640E0,-4.364600033E-2,-9.009700269E-2,-6.161399931E-2,1.175530865E-1
4.221609254E0,-5.359699950E-2,-1.035429984E-1,-5.074999854E-2,1.271587717E-1
4.226620717E0,-3.534400091E-2,-9.992799908E-2,-2.583999932E-2,1.090986204E-1
4.231632331E0,-4.092599824E-2,-1.125539988E-1,3.296999959E-3,1.198090572E-1
4.236643794E0,-2.781699970E-2,-1.248449981E-1,1.774100028E-2,1.291309495E-1
4.241655179E0,-5.934999790E-3,-1.282089949E-1,-1.492900029E-2,1.292116312E-1
4.246666778E0,-9.609999834E-4,-1.339530051E-1,-1.171199977E-2,1.344674757E-1
4.251678242E0,2.000500076E-2,-1.283819973E-1,-3.885599971E-2,1.356168353E-1
4.256689870E0,3.563899919E-2,-1.325139999E-1,-4.668499902E-2,1.449468440E-1
4.261701334E0,5.551299825E-2,-1.390540004E-1,-5.207400024E-2,1.585225836E-1
4.266712942E0,7.015900314E-2,-1.451800019E-1,-2.917400002E-2,1.638616518E-1
4.271724329E0,4.945399985E-2,-1.399289966E-1,-5.830800161E-2,1.594542105E-1
4.276736010E0,2.230300009E-2,-1.261000037E-1,-1.103340015E-1,1.690332116E-1
4.281747474E0,2.838999964E-3,-8.277300000E-2,-1.821759939E-1,2.001187703E-1
4.286758858E0,-9.255000390E-3,-4.777399823E-2,-2.408140004E-1,2.456814863E-1
4.291770481E0,-2.094800025E-2,-1.657100022E-2,-1.737229973E-1,1.757643211E-1
4.296781944E0,-2.538999915E-2,-3.502999898E-3,-1.029440016E-1,1.060867123E-1
4.301793558E0,-1.830900088E-2,1.145599969E-2,-1.297069937E-1,1.314928274E-1
4.306805036E0,1.400000037E-4,2.792900056E-2,-1.770119965E-1,1.792018292E-1
4.311816421E0,1.115200017E-2,3.007799946E-2,-1.812659949E-1,1.840826284E-1
4.316828029E0,1.272400003E-2,2.294499986E-2,-1.714819968E-1,1.734775156E-1
4.321839493E0,4.968000110E-3,-1.488499995E-2,-1.789070070E-1,1.795938791E-1
4.326851106E0,-2.811300009E-2,-5.480799824E-2,-1.938920021E-1,2.034413083E-1
4.331862478E0,-7.872299850E-2,-8.246999979E-2,-1.997199953E-1,2.299710588E-1
4.336873937E0,-9.060700238E-2,-1.214179993E-1,-1.967390031E-1,2.483106819E-1
4.341885568E0,-1.020200029E-1,-1.502290070E-1,-1.920080036E-1,2.642799822E-1
4.346897031E0,-1.036550030E-1,-1.540360004E-1,-1.382109970E-1,2.314599938E-1
4.351908722E0,-9.356799722E-2,-1.496960074E-1,-7.349199802E-2,1.912196080E-1
4.356920108E0,-8.359599859E-2,-1.470510066E-1,-1.909600012E-2,1.702261635E-1
4.361931722E0,-6.456200033E-2,-1.248499975E-1,3.248700127E-2,1.442608020E-1
4.366943112E0,-4.840699956E-2,-1.099859998E-1,4.598499835E-2,1.286653715E-1
4.371954572E0,-2.339500003E-2,-7.892700285E-2,4.816300049E-2,9.537542881E-2
4.376966187E0,8.730000118E-4,-5.333900079E-2,3.437700123E-2,6.346329134E-2
4.381977651E0,2.449500002E-2,-4.730100185E-2,2.585300058E-2,5.920952154E-2
4.386989264E0,3.813200071E-2,-4.850000143E-2,3.416299820E-2,7.052240823E-2
4.392000671E0,5.827299878E-2,-4.482499883E-2,6.155800074E-2,9.588748804E-2
4.397012361E0,6.399700046E-2,-6.734800339E-2,6.489399821E-2,1.133251986E-1
4.402023748E0,8.581800014E-2,-8.980300277E-2,6.100999936E-2,1.383890475E-1
4.407035194E0,1.302219927E-1,-9.576699883E-2,5.269499868E-2,1.700172001E-1
4.412046808E0,1.199809983E-1,-1.113160029E-1,5.155500025E-2,1.715943196E-1
4.417058271E0,1.170860007E-1,-1.082810014E-1,2.947800048E-2,1.621815629E-1
4.422069875E0,1.025940031E-1,-1.085110009E-1,-1.559699979E-2,1.501447075E-1
4.427081338E0,8.833900094E-2,-1.119220033E-1,-5.744199827E-2,1.537201909E-1
4.432092952E0,7.190799713E-2,-1.206889972E-1,-1.010690033E-1,1.730651251E-1
4.437104415E0,3.932299837E-2,-1.278160065E-1,-1.534830034E-1,2.035688141E-1
4.442115800E0,1.434800029E-2,-1.211389974E-1,-1.861730069E-1,2.225778747E-1
4.447127413E0,-5.551999900E-3,-1.123349965E-1,-2.042309940E-1,2.331529006E-1
4.452138877E0,-2.045300044E-2,-1.153950021E-1,-2.104399949E-1,2.408720058E-1
4.457150490E0,-3.034799919E-2,-1.037610024E-1,-1.883109957E-1,2.171367721E-1
4.462161954E0,-4.465600103E-2,-1.084190011E-1,-1.786649972E-1,2.137054502E-1
4.467173338E0,-5.618299916E-2,-1.053420007E-1,-1.505019963E-1,1.921049645E-1
4.472185029E0,-4.864899814E-2,-9.931799769E-2,-1.181550026E-1,1.618375554E-1
4.477196430E0,-4.797799885E-2,-7.616899908E-2,-8.623299748E-2,1.246584720E-1
4.482208044E0,-5.394399911E-2,-7.644499838E-2,-6.446199864E-2,1.136184056E-1
4.487219521E0,-2.917299978E-2,-5.987900123E-2,-4.994999990E-2,8.325599795E-2
4.492230906E0,-4.734000191E-3,-5.280299857E-2,-4.747200012E-2,7.116289912E-2
4.497242519E0,5.448000040E-3,-5.064300075E-2,-5.682300031E-2,7.631020636E-2
4.502253959E0,1.790999994E-2,-6.360299885E-2,-1.179800034E-1,1.352234845E-1
4.507265572E0,-1.759469956E-1,-1.680260003E-1,-5.709009767E-1,6.205787679E-1
4.512277036E0,-1.756139994E-1,-1.393509954E-1,-3.700279891E-1,4.326426810E-1
4.517288649E0,3.373000026E-2,-1.126359999E-1,-4.531300068E-2,1.260073388E-1
4.522300113E0,9.070999920E-2,-1.558800042E-1,4.298900068E-2,1.854047837E-1
4.527311726E0,8.099900186E-2,-2.018239945E-1,4.788999911E-3,2.175240161E-1
4.532323176E0,1.085460037E-1,-2.099730074E-1,-2.323899977E-2,2.375098943E-1
4.537334560E0,1.258859932E-1,-1.852059960E-1,-1.709299907E-2,2.245901041E-1
4.542346174E0,1.054600030E-1,-1.729609966E-1,-2.711299993E-2,2.043830555E-1
4.547357646E0,8.551699668E-2,-1.516399980E-1,-2.465499938E-2,1.758286515E-1
4.552369260E0,8.697699755E-2,-1.445090026E-1,6.343999878E-3,1.687841706E-1
4.557380646E0,9.056200087E-2,-1.015840024E-1,5.900799856E-2,1.483331704E-1
4.562392116E0,1.007909998E-1,-3.756099939E-2,1.121750027E-1,1.554119865E-1
4.567403731E0,1.175099984E-1,1.718300022E-2,2.105270028E-1,2.417136201E-1
4.572415195E0,1.266099960E-1,6.335999817E-2,3.676440120E-1,3.939628155E-1
4.577426808E0,9.333600104E-2,9.748599678E-2,4.602079988E-1,4.795899611E-1
4.582438272E0,2.108599991E-2,1.275800020E-1,4.467760026E-1,4.651129678E-1
4.587449885E0,-1.193889976E-1,1.354530007E-1,3.168349862E-1,3.646719850E-1
4.592461277E0,-2.075600028E-1,6.806799769E-2,5.415200070E-2,2.250485420E-1
4.597472736E0,-9.136699885E-2,5.234099925E-2,-1.950680017E-1,2.216732595E-1
4.602484352E0,-1.341390014E-1,3.198299929E-2,-3.868609965E-1,4.107038039E-1
4.607496039E0,-1.686879992E-1,2.289799973E-2,-4.845890105E-1,5.136209386E-1
4.612507426E0,-1.581239998E-1,3.080200031E-2,-5.203019977E-1,5.446706632E-1
4.617518810E0,-1.340209991E-1,3.019200079E-2,-5.092350245E-1,5.274405135E-1
4.622530255E0,-1.036560014E-1,1.457200013E-2,-4.617210031E-1,4.734376353E-1
4.627541947E0,-9.718900174E-2,-3.649400175E-2,-3.694700003E-1,3.837780548E-1
