"Time (s)","Linear Acceleration x (m/s^2)","Linear Acceleration y (m/s^2)","Linear Acceleration z (m/s^2)","Absolute acceleration (m/s^2)"
5.222406000E-3,-2.517019033E0,-3.163959980E-1,-4.022800177E-2,2.537145943E0
4.531425200E-2,-1.714926004E0,-3.685550094E-1,5.476599932E-2,1.754936839E0
5.032571500E-2,-1.614956021E0,-4.028339982E-1,5.787200108E-2,1.665445090E0
5.533711400E-2,-1.517812014E0,-4.271929860E-1,4.975499958E-2,1.577568609E0
6.034872700E-2,-1.425670981E0,-4.465700090E-1,1.680099964E-2,1.494069876E0
6.536019100E-2,-1.331532955E0,-4.442180097E-1,-1.007799990E-2,1.403713367E0
7.037157500E-2,-1.274763942E0,-4.417679906E-1,-3.334699944E-2,1.349553292E0
7.538318900E-2,-1.237908959E0,-4.488269985E-1,-5.553099886E-2,1.317933215E0
8.039465200E-2,-1.227249026E0,-4.797759950E-1,-7.925699651E-2,1.320078350E0
8.540625600E-2,-1.219027042E0,-4.915739894E-1,-1.089679971E-1,1.318918474E0
9.041764200E-2,-1.206151962E0,-4.817759991E-1,-1.259060055E-1,1.304899610E0
9.542909300E-2,-1.170338035E0,-4.335969985E-1,-1.325130016E-1,1.255092494E0
1.004407080E-1,-1.160825014E0,-4.092999995E-1,-1.406839937E-1,1.238883848E0
1.054521720E-1,-1.172075987E0,-4.089460075E-1,-1.644439995E-1,1.252214353E0
1.104635470E-1,-1.161730051E0,-3.990339935E-1,-1.892350018E-1,1.242841392E0
1.154751600E-1,-1.176731944E0,-4.059329927E-1,-2.267439961E-1,1.265263808E0
1.204866070E-1,-1.207111955E0,-4.199700058E-1,-2.393810004E-1,1.300306633E0
1.254982210E-1,-1.206065059E0,-4.362559915E-1,-2.325460017E-1,1.303453052E0
1.305096080E-1,-1.237064958E0,-4.595220089E-1,-2.114530057E-1,1.336488892E0
1.355210670E-1,-1.317926049E0,-4.920989871E-1,-1.788360029E-1,1.418122985E0
1.405326820E-1,-1.289597988E0,-4.981769919E-1,-1.673559994E-1,1.392570040E0
1.455440590E-1,-1.252859950E0,-4.992919862E-1,-1.508270055E-1,1.357092233E0
1.505555190E-1,-1.217208028E0,-5.217490196E-1,-1.318590045E-1,1.330865966E0
1.555671340E-1,-1.171110988E0,-5.178470016E-1,-1.452099979E-1,1.288701830E0
1.605785940E-1,-1.084748030E0,-5.043039918E-1,-1.436520070E-1,1.204838870E0
1.655902070E-1,-9.918749928E-1,-4.859560132E-1,-1.462440044E-1,1.114161818E0
1.706016080E-1,-9.205170274E-1,-4.555439949E-1,-1.250530034E-1,1.034654620E0
1.756130670E-1,-8.421229720E-1,-4.250890017E-1,-1.109659970E-1,9.498343076E-1
1.806244540E-1,-7.660620213E-1,-3.945670128E-1,-8.759199828E-2,8.661446220E-1
1.856360670E-1,-7.130690217E-1,-3.830859959E-1,-5.758899823E-2,8.115040374E-1
1.906475310E-1,-6.591969728E-1,-3.667579889E-1,-3.744500130E-2,7.552841846E-1
1.956591290E-1,-6.206610203E-1,-3.671450019E-1,-2.203899994E-2,7.214577410E-1
2.006705930E-1,-5.945990086E-1,-3.747189939E-1,-2.278400026E-2,7.031937258E-1
2.056822060E-1,-5.691350102E-1,-3.871839941E-1,-5.311999843E-2,6.903968709E-1
2.106935790E-1,-5.373839736E-1,-3.926819861E-1,-1.145460010E-1,6.753528438E-1
2.157050380E-1,-5.063589811E-1,-4.247010052E-1,-1.782760024E-1,6.845090903E-1
2.207166540E-1,-4.808070064E-1,-4.448670149E-1,-2.188140005E-1,6.906240693E-1
2.257280250E-1,-4.511939883E-1,-4.962210059E-1,-2.507410049E-1,7.160184030E-1
2.307394850E-1,-4.463219941E-1,-5.307570100E-1,-2.397930026E-1,7.337622300E-1
2.357508710E-1,-4.576509893E-1,-5.580049753E-1,-2.263080031E-1,7.563261814E-1
2.407624850E-1,-4.707979858E-1,-5.898609757E-1,-1.894049942E-1,7.781137230E-1
2.457739440E-1,-4.787839949E-1,-6.096339822E-1,-1.644939929E-1,7.924304258E-1
2.507855580E-1,-4.839879870E-1,-6.461250186E-1,-1.695740074E-1,8.249104529E-1
2.557969440E-1,-4.887450039E-1,-6.969699860E-1,-1.898040026E-1,8.721607648E-1
2.608084040E-1,-5.024099946E-1,-7.262809873E-1,-2.198870033E-1,9.100825069E-1
2.658200230E-1,-5.248379707E-1,-7.627059817E-1,-2.339649945E-1,9.549423693E-1
2.708314870E-1,-5.092960000E-1,-8.134739995E-1,-2.442110032E-1,9.903339727E-1
2.758431000E-1,-4.617219865E-1,-8.571249843E-1,-2.506529987E-1,1.005324503E0
2.808544920E-1,-4.200940132E-1,-9.127920270E-1,-2.601779997E-1,1.037959949E0
2.858659520E-1,-3.817799985E-1,-9.588900208E-1,-2.658889890E-1,1.065796882E0
2.908775670E-1,-3.421390057E-1,-9.857940078E-1,-2.377409935E-1,1.070219466E0
2.958889590E-1,-3.480469882E-1,-1.037361979E0,-2.156060040E-1,1.115232053E0
3.009004180E-1,-3.370270133E-1,-1.067353010E0,-2.066109926E-1,1.138208135E0
3.059120330E-1,-3.425810039E-1,-1.114032984E0,-1.964640021E-1,1.181959956E0
3.109234970E-1,-3.455609977E-1,-1.165438056E0,-1.611559987E-1,1.226225722E0
3.159348870E-1,-3.365109861E-1,-1.214380026E0,-1.341820061E-1,1.267266074E0
3.209465000E-1,-3.154299855E-1,-1.260844946E0,-1.419070065E-1,1.307426347E0
3.259578870E-1,-2.991349995E-1,-1.314406991E0,-1.578949988E-1,1.357231858E0
3.309693550E-1,-2.948119938E-1,-1.365470052E0,-1.893920004E-1,1.409713412E0
3.359809710E-1,-2.977379858E-1,-1.442741990E0,-2.005030066E-1,1.486725870E0
3.409924340E-1,-2.601200044E-1,-1.515107036E0,-2.584030032E-1,1.558840549E0
3.460038290E-1,-2.536909878E-1,-1.596902966E0,-2.960940003E-1,1.643815640E0
3.510154420E-1,-2.545250058E-1,-1.678539038E0,-2.944920063E-1,1.723079169E0
3.560271350E-1,-2.363680005E-1,-1.774371982E0,-2.534849942E-1,1.807904976E0
3.610382900E-1,-1.968300045E-1,-1.867637038E0,-2.999339998E-1,1.901780892E0
3.660499040E-1,-1.813839972E-1,-1.965497971E0,-3.117339909E-1,1.998314417E0
3.710613720E-1,-1.565960050E-1,-2.058371067E0,-3.343639970E-1,2.091222858E0
3.760729860E-1,-1.034530029E-1,-2.134287119E0,-3.844299912E-1,2.171098903E0
3.810844490E-1,-7.608000189E-3,-2.198019981E0,-4.214890003E-1,2.238080137E0
3.860960770E-1,1.142970026E-1,-2.244759083E0,-4.575650096E-1,2.293768271E0
3.911075400E-1,2.024829984E-1,-2.279272079E0,-4.353930056E-1,2.329301965E0
3.961189150E-1,2.857030034E-1,-2.330265045E0,-4.148879945E-1,2.384091742E0
4.011305280E-1,4.093360007E-1,-2.340310097E0,-3.651539981E-1,2.403735583E0
4.061420070E-1,5.425350070E-1,-2.328526020E0,-3.461500108E-1,2.415822322E0
4.111533910E-1,6.711429954E-1,-2.359504938E0,-4.083490074E-1,2.486854516E0
4.161650050E-1,6.707090139E-1,-2.409328938E0,-5.664110184E-1,2.564281177E0
4.211764680E-1,6.990820169E-1,-2.427789927E0,-7.513660192E-1,2.635797885E0
4.261878530E-1,7.131339908E-1,-2.402961969E0,-8.894929886E-1,2.659696241E0
4.311994370E-1,6.126000285E-1,-2.385127068E0,-9.119510055E-1,2.625978781E0
4.362109010E-1,5.506029725E-1,-2.388691902E0,-8.453440070E-1,2.592994240E0
4.412225140E-1,4.721199870E-1,-2.416095972E0,-7.353900075E-1,2.569283070E0
4.462339010E-1,2.884820104E-1,-2.469774008E0,-5.965080261E-1,2.557113088E0
4.512453750E-1,1.788520068E-1,-2.535402060E0,-5.193330050E-1,2.594216339E0
4.562569900E-1,1.598519981E-1,-2.572312117E0,-5.179259777E-1,2.628800031E0
4.612684530E-1,2.292809933E-1,-2.602016926E0,-5.202199817E-1,2.663398334E0
4.662798380E-1,2.414299995E-1,-2.657968044E0,-5.593839884E-1,2.726901725E0
4.712914510E-1,2.252860069E-1,-2.723366976E0,-5.991870165E-1,2.797589418E0
4.763029150E-1,1.330409944E-1,-2.793395996E0,-6.248840094E-1,2.865526326E0
4.813145280E-1,-3.053800017E-2,-2.853665113E0,-5.811550021E-1,2.912400777E0
4.863259970E-1,-1.983840019E-1,-2.916119099E0,-5.085440278E-1,2.966769933E0
4.913373820E-1,-4.231890142E-1,-2.963965893E0,-3.899930120E-1,3.019317357E0
4.963490090E-1,-7.458369732E-1,-3.033085108E0,-2.108470052E-1,3.130548598E0
5.013604730E-1,-8.243070245E-1,-3.046871901E0,-1.335760057E-1,3.159232976E0
5.063718570E-1,-7.923870087E-1,-3.029217958E0,-6.479600072E-2,3.131810520E0
5.113834660E-1,-7.716829777E-1,-2.984844923E0,5.055600032E-2,3.083399057E0
5.163949290E-1,-8.146389723E-1,-2.963942051E0,2.006880045E-1,3.080400106E0
5.214063140E-1,-8.901749849E-1,-2.947321892E0,3.762519956E-1,3.101722651E0
5.264180040E-1,-9.506070018E-1,-2.922967911E0,5.488209724E-1,3.122274738E0
5.314293910E-1,-9.840549827E-1,-2.864511013E0,7.377129793E-1,3.117371969E0
5.364409900E-1,-9.715340137E-1,-2.786308050E0,9.069449902E-1,3.087060107E0
5.414524540E-1,-9.395880103E-1,-2.683537960E0,1.020781040E0,3.020959375E0
5.464640670E-1,-8.956189752E-1,-2.589736938E0,1.066967010E0,2.940627375E0
5.514754490E-1,-8.423280120E-1,-2.495388985E0,1.064371943E0,2.840663707E0
5.564869080E-1,-7.536060214E-1,-2.381419897E0,1.036474943E0,2.704323033E0
5.614985190E-1,-6.537290215E-1,-2.288625956E0,9.923859835E-1,2.578759457E0
5.665099820E-1,-5.405079722E-1,-2.193169117E0,9.245210290E-1,2.440671788E0
5.715213530E-1,-3.996610045E-1,-2.114304066E0,8.730409741E-1,2.322113508E0
5.765329660E-1,-2.528890073E-1,-2.059293032E0,8.543859720E-1,2.243795006E0
5.815444300E-1,-7.857900113E-2,-2.044955015E0,8.826640248E-1,2.228701742E0
5.865558230E-1,9.942399710E-2,-2.028245926E0,9.266449809E-1,2.232115048E0
5.915675140E-1,2.501919866E-1,-2.047456026E0,9.743589759E-1,2.281238178E0
5.965789000E-1,3.476569951E-1,-2.071450949E0,1.016281009E0,2.333366990E0
6.015904900E-1,3.968310058E-1,-2.097796917E0,1.045377016E0,2.377191590E0
6.066018760E-1,3.716759980E-1,-2.100140095E0,1.083233953E0,2.392096834E0
6.116133360E-1,3.057869971E-1,-2.078423023E0,1.096590042E0,2.369780089E0
6.166249510E-1,2.161139995E-1,-2.015880108E0,1.066318035E0,2.290744862E0
6.216364390E-1,1.266189963E-1,-1.922060013E0,9.901160002E-1,2.165797026E0
6.266478230E-1,2.769199945E-2,-1.806594014E0,8.438699841E-1,1.994157799E0
6.316595040E-1,-7.595700026E-2,-1.671898961E0,6.730329990E-1,1.803881653E0
6.366708900E-1,-1.796769947E-1,-1.541967034E0,5.109699965E-1,1.634330595E0
6.416824850E-1,-2.740480006E-1,-1.431172013E0,3.768469989E-1,1.505114381E0
6.466939480E-1,-3.496060073E-1,-1.341943979E0,2.682459950E-1,1.412442536E0
6.517055620E-1,-4.137069881E-1,-1.255161047E0,2.091359943E-1,1.338028621E0
6.567170250E-1,-4.688450098E-1,-1.163604021E0,1.829649955E-1,1.267780009E0
6.617284050E-1,-5.272219777E-1,-1.098299980E0,1.877480000E-1,1.232669936E0
6.667400180E-1,-5.844129920E-1,-1.016690016E0,1.828110069E-1,1.186851717E0
6.717514820E-1,-6.158480048E-1,-9.302170277E-1,1.868609935E-1,1.131145223E0
6.767630760E-1,-6.642450094E-1,-8.433359861E-1,1.673569977E-1,1.086483034E0
6.817744630E-1,-6.990500093E-1,-7.608770132E-1,1.458780020E-1,1.043496591E0
6.867858480E-1,-6.999059916E-1,-6.567069888E-1,1.199290007E-1,9.672204668E-1
6.917975280E-1,-7.141569853E-1,-5.737119913E-1,7.790099829E-2,9.193662024E-1
6.968089910E-1,-6.669350266E-1,-5.026339889E-1,3.870400041E-2,8.360270666E-1
7.018203820E-1,-5.665320158E-1,-4.582340121E-1,2.551699989E-2,7.291008518E-1
7.068319950E-1,-4.466049969E-1,-4.071069956E-1,4.710000008E-3,6.043296395E-1
7.118434590E-1,-3.601239920E-1,-4.352410138E-1,9.460000321E-3,5.649898417E-1
7.168548200E-1,-3.099679947E-1,-4.903460145E-1,6.925600022E-2,5.842223594E-1
7.218664330E-1,-3.083960116E-1,-5.724329948E-1,1.642100066E-1,6.706359369E-1
7.268778780E-1,-3.511910141E-1,-6.456109881E-1,2.746280134E-1,7.845821959E-1
7.318894910E-1,-4.416339993E-1,-7.048040032E-1,3.697290123E-1,9.102136095E-1
7.369008780E-1,-5.414249897E-1,-7.164649963E-1,4.496769905E-1,1.004326892E0
7.419123370E-1,-6.230949759E-1,-6.849359870E-1,4.634630084E-1,1.035462513E0
7.469239530E-1,-6.997039914E-1,-6.021749973E-1,3.729909956E-1,9.956518899E-1
7.519354210E-1,-7.558900118E-1,-4.868499935E-1,2.038780004E-1,9.219321369E-1
7.569470340E-1,-7.675200105E-1,-3.054209948E-1,-2.635399997E-2,8.264765477E-1
7.619584980E-1,-7.618460059E-1,-1.154820025E-1,-2.819359899E-1,8.205079719E-1
7.669698970E-1,-7.510240078E-1,6.347600371E-2,-5.158960223E-1,9.133536934E-1
7.719815100E-1,-7.468289733E-1,2.163569927E-1,-6.775069833E-1,1.031299945E0
7.769929740E-1,-7.421579957E-1,3.376420140E-1,-7.588779926E-1,1.113865534E0
7.820043630E-1,-7.071369886E-1,4.914090037E-1,-8.157740235E-1,1.186175698E0
7.870159770E-1,-5.986760259E-1,6.620730162E-1,-7.877799869E-1,1.190525502E0
7.920274540E-1,-4.673599899E-1,8.275009990E-1,-7.223190069E-1,1.193703485E0
7.970390680E-1,-3.106769919E-1,9.662780166E-1,-6.526589990E-1,1.206721661E0
8.020505450E-1,-1.400689930E-1,1.095352054E0,-6.957820058E-1,1.305192723E0
8.070619300E-1,-2.877000021E-3,1.224403977E0,-8.300899863E-1,1.479264264E0
8.120735470E-1,1.230320036E-1,1.331881046E0,-1.003208041E0,1.671966019E0
8.170850110E-1,2.357800007E-1,1.436794996E0,-1.186854005E0,1.878455349E0
8.220966240E-1,3.072260022E-1,1.500710964E0,-1.350466013E0,2.042126261E0
8.271080110E-1,3.280940056E-1,1.494698048E0,-1.468256950E0,2.120741946E0
8.321194700E-1,3.009189963E-1,1.437700987E0,-1.464105010E0,2.073918959E0
8.371310910E-1,2.496539950E-1,1.351215959E0,-1.330899000E0,1.912956830E0
8.421425540E-1,1.692160070E-1,1.199296951E0,-1.133226991E0,1.658659292E0
8.471539390E-1,5.674900115E-2,1.015501022E0,-9.114819765E-1,1.365746012E0
8.521655470E-1,-2.854299918E-2,8.262019753E-1,-6.389830112E-1,1.044855825E0
8.571770110E-1,-5.264599994E-2,6.462709904E-1,-3.402569890E-1,7.322653978E-1
8.621886240E-1,-4.015700147E-2,4.874979854E-1,-4.058599845E-2,4.908300050E-1
8.672000060E-1,-3.687899932E-2,3.460769951E-1,1.761080027E-1,3.900556060E-1
8.722114650E-1,5.774000194E-3,2.391790003E-1,3.352760077E-1,4.118858271E-1
8.772230810E-1,5.594800040E-2,1.771560013E-1,4.125359952E-1,4.524382554E-1
8.822345490E-1,8.297000080E-2,1.180260032E-1,4.148949981E-1,4.392630395E-1
8.872459340E-1,8.269999921E-2,8.165500313E-2,3.508589864E-1,3.696063551E-1
8.922575470E-1,6.036400050E-2,7.549499720E-2,2.519739866E-1,2.698781153E-1
8.972690060E-1,4.448400065E-2,1.092680022E-1,1.138439998E-1,1.639474883E-1
9.022806190E-1,2.109199949E-2,1.758279949E-1,-5.405899882E-2,1.851559656E-1
9.072920890E-1,-1.866899990E-2,2.632089853E-1,-2.376649976E-1,3.551227289E-1
9.123037020E-1,-5.782100186E-2,3.565309942E-1,-3.951529860E-1,5.353536219E-1
9.173150890E-1,-7.986599952E-2,4.673210084E-1,-5.393310189E-1,7.180845708E-1
9.223267790E-1,-7.794199884E-2,5.617539883E-1,-6.564589739E-1,8.675141975E-1
9.273381850E-1,-1.458799988E-1,6.497989893E-1,-7.966390252E-1,1.038341676E0
9.323496460E-1,-1.919610053E-1,6.864380240E-1,-8.920699954E-1,1.141855974E0
9.373612650E-1,-2.809099853E-1,6.841149926E-1,-9.889990091E-1,1.234926226E0
9.423726510E-1,-3.391270041E-1,6.594910026E-1,-9.940860271E-1,1.240218746E0
9.473841210E-1,-3.696590066E-1,6.459590197E-1,-9.288340211E-1,1.190228329E0
9.523957360E-1,-3.321210146E-1,6.210979819E-1,-7.960910201E-1,1.062933669E0
9.574072000E-1,-2.646909952E-1,5.910120010E-1,-6.009579897E-1,8.834630800E-1
9.624188130E-1,-2.081390023E-1,5.821319818E-1,-4.029740095E-1,7.379617476E-1
9.674302000E-1,-9.032999724E-2,5.927159786E-1,-2.718079984E-1,6.582942562E-1
9.724416590E-1,1.056799963E-1,6.228889823E-1,-1.729259938E-1,6.550285072E-1
9.774532750E-1,2.945240140E-1,6.405140162E-1,-1.564960033E-1,7.221451369E-1
9.824647420E-1,4.329209924E-1,6.115159988E-1,-2.411309928E-1,7.870937417E-1
9.874761270E-1,5.321369767E-1,5.373399854E-1,-4.101499915E-1,8.603063625E-1
9.924878170E-1,5.963889956E-1,4.375230074E-1,-5.892909765E-1,9.457114101E-1
9.974991850E-1,6.457939744E-1,3.235470057E-1,-7.177720070E-1,1.018297194E0
1.002510798E0,6.882100105E-1,1.980810016E-1,-8.575519919E-1,1.117257589E0
1.007522171E0,6.754019856E-1,5.905099958E-2,-9.991539717E-1,1.207461603E0
1.012533631E0,6.300780177E-1,-7.725399733E-2,-1.093714952E0,1.264586449E0
1.017545246E0,6.395530105E-1,-1.601590067E-1,-1.058688998E0,1.247197400E0
1.022556709E0,6.165680289E-1,-1.835059971E-1,-9.610540271E-1,1.156484080E0
1.027568323E0,5.109850168E-1,-1.163889989E-1,-8.855400085E-1,1.028996207E0
1.032579719E0,3.411659896E-1,1.233999967E-3,-9.076399803E-1,9.696422480E-1
1.037591178E0,7.119300216E-2,1.437609941E-1,-1.002640963E0,1.015393799E0
1.042602788E0,-2.599639893E-1,3.139030039E-1,-1.162922978E0,1.232276846E0
1.047614175E0,-6.733400226E-1,4.664649963E-1,-1.313287973E0,1.547805440E0
1.052625635E0,-1.112486005E0,6.398440003E-1,-1.398190975E0,1.897883942E0
1.057637265E0,-1.563915968E0,7.860720158E-1,-1.360180974E0,2.216717089E0
1.062648729E0,-1.963678956E0,8.835790157E-1,-1.223049998E0,2.476408330E0
1.067660342E0,-2.326894045E0,9.324809909E-1,-1.041394949E0,2.714490769E0
1.072671806E0,-2.598937988E0,9.494630098E-1,-8.391339779E-1,2.891384531E0
1.077683190E0,-2.784627914E0,9.346179962E-1,-6.471959949E-1,3.007744350E0
1.082694794E0,-2.860004902E0,8.856589794E-1,-4.845120013E-1,3.032947699E0
1.087706257E0,-2.781698942E0,8.098199964E-1,-3.941420019E-1,2.923868217E0
1.092717871E0,-2.582580090E0,7.119370103E-1,-4.048880041E-1,2.709337285E0
1.097729323E0,-2.300226927E0,6.158739924E-1,-5.338420272E-1,2.440354892E0
1.102740708E0,-1.967370033E0,4.952169955E-1,-7.430949807E-1,2.160549669E0
1.107752345E0,-1.616606951E0,3.450199962E-1,-9.758120179E-1,1.919548365E0
1.112763809E0,-1.220360994E0,1.848040074E-1,-1.060117960E0,1.627047500E0
1.117775422E0,-8.309820294E-1,-7.904999889E-3,-9.873430133E-1,1.290519217E0
1.122786886E0,-4.388220012E-1,-2.101619989E-1,-8.238490224E-1,9.567967528E-1
1.127798499E0,-9.547299892E-2,-4.145430028E-1,-6.555299759E-1,7.814605198E-1
1.132809886E0,1.162170023E-1,-6.253010035E-1,-4.966869950E-1,8.069731765E-1
1.137821345E0,2.620800138E-1,-8.398979902E-1,-3.330450058E-1,9.407622141E-1
1.142832732E0,4.192230105E-1,-9.634220004E-1,-1.846909970E-1,1.066789880E0
1.147844341E0,5.718129873E-1,-1.036527991E0,-7.744699717E-2,1.186321376E0
1.152855805E0,7.641370296E-1,-1.097941995E0,5.204499885E-2,1.338689921E0
1.157867418E0,9.591199756E-1,-1.093111038E0,1.996739954E-1,1.467880300E0
1.162878862E0,1.213225007E0,-1.048275948E0,3.228380084E-1,1.635549375E0
1.167890246E0,1.468418002E0,-9.250289798E-1,3.980489969E-1,1.780554140E0
1.172901937E0,1.741336942E0,-7.399259806E-1,5.094860196E-1,1.959418487E0
1.177913323E0,1.889487982E0,-5.011450052E-1,6.267259717E-1,2.052826489E0
1.182924932E0,1.963137031E0,-2.605569959E-1,5.875570178E-1,2.065676693E0
1.187936624E0,1.907865047E0,2.770500071E-2,3.647049963E-1,1.942608128E0
1.192948011E0,1.805179000E0,2.973690033E-1,8.350200206E-2,1.831412605E0
1.197959400E0,1.643417954E0,5.277460217E-1,-2.739219964E-1,1.747676085E0
1.202970860E0,1.490208030E0,7.033650279E-1,-5.517749786E-1,1.737785361E0
1.207982485E0,1.288347960E0,8.332780004E-1,-9.120810032E-1,1.784960629E0
1.212993949E0,1.012686014E0,8.547649980E-1,-1.186393976E0,1.778675584E0
1.218005562E0,7.015879750E-1,8.466650248E-1,-1.296098948E0,1.699688157E0
1.223017035E0,3.334299922E-1,7.993350029E-1,-1.315587044E0,1.575081355E0
1.228028419E0,-8.014799654E-2,7.535979748E-1,-1.206269979E0,1.424577436E0
1.233040033E0,-5.326139927E-1,6.426230073E-1,-9.964209795E-1,1.299806433E0
1.238051487E0,-9.664419889E-1,4.601260126E-1,-7.611299753E-1,1.313409648E0
1.243062872E0,-1.319669962E0,2.976660132E-1,-4.566639960E-1,1.427822072E0
1.248074499E0,-1.606964946E0,1.669249982E-1,-1.432559937E-1,1.621950237E0
1.253085963E0,-1.786996007E0,8.462700248E-2,1.319070011E-1,1.793855043E0
1.258097576E0,-1.887030005E0,5.804900080E-2,3.625859916E-1,1.922425689E0
1.263108934E0,-1.926339984E0,5.650899932E-2,5.312219858E-1,1.999043721E0
1.268120393E0,-1.884053946E0,1.182499975E-1,6.507620215E-1,1.996780794E0
1.273132009E0,-2.158169985E0,2.533000112E-1,9.393300116E-2,2.175013101E0
1.278143477E0,-1.594117045E0,2.961080074E-1,1.237442970E0,2.039645609E0
1.283155091E0,-1.533645988E0,4.197179973E-1,7.779629827E-1,1.770158076E0
1.288166492E0,-1.401347995E0,4.154570103E-1,8.733890057E-1,1.702700527E0
1.293177952E0,-1.286715031E0,3.898580074E-1,8.707200289E-1,1.601804671E0
1.298189587E0,-7.945809960E-1,4.147849977E-1,1.167166948E0,1.471626392E0
1.303201051E0,-5.194900036E-1,4.539029896E-1,8.526790142E-1,1.096795008E0
1.308212411E0,-1.613869965E-1,5.030940175E-1,6.510450244E-1,8.384563059E-1
1.313224025E0,1.079270020E-1,6.052049994E-1,2.110919952E-1,6.499855072E-1
1.318235488E0,6.883829832E-1,6.492310166E-1,2.682340145E-1,9.835250536E-1
1.323247107E0,1.116462946E0,7.927029729E-1,-1.493030041E-1,1.377373914E0
1.328258570E0,1.428784966E0,8.251199722E-1,-4.914940000E-1,1.721573641E0
1.333270184E0,1.600980997E0,8.562859893E-1,-7.471529841E-1,1.963314399E0
1.338281656E0,1.690845013E0,9.080510139E-1,-9.956489801E-1,2.162135609E0
1.343293270E0,1.642025948E0,9.596679807E-1,-1.154327035E0,2.224788248E0
1.348304661E0,1.484877944E0,1.049492955E0,-1.244331956E0,2.203329296E0
1.353316121E0,1.223438025E0,1.141631007E0,-1.231984019E0,2.077957310E0
1.358327750E0,8.785960078E-1,1.240893006E0,-1.095500946E0,1.873998058E0
1.363339214E0,4.303889871E-1,1.323322058E0,-8.706089854E-1,1.641455438E0
1.368350598E0,-4.873639941E-1,1.386602044E0,-1.033396006E0,1.796690345E0
1.373362222E0,-4.912469983E-1,1.452185035E0,1.422909945E-1,1.539614145E0
1.378373685E0,-1.247704983E0,1.673087955E0,-1.432439983E-1,2.092010963E0
1.383385308E0,-1.842175007E0,1.819440961E0,-1.899199933E-1,2.596159427E0
1.388396771E0,-2.332657099E0,1.986914992E0,-3.256990016E-1,3.081428267E0
1.393408166E0,-2.663948059E0,2.029581070E0,-3.260410130E-1,3.364836002E0
1.398419779E0,-2.404920101E0,2.088659048E0,2.099879980E-1,3.192214321E0
1.403431243E0,-2.327685118E0,2.040024042E0,1.918240041E-1,3.101066357E0
1.408442832E0,-2.032102108E0,1.886351943E0,2.686960101E-1,2.785670507E0
1.413454219E0,-1.620316029E0,1.709328055E0,2.550710142E-1,2.369026732E0
1.418465679E0,-1.122648001E0,1.482867002E0,7.504300028E-2,1.861414659E0
1.423477294E0,-5.522360206E-1,1.223858953E0,-1.805579960E-1,1.354768079E0
1.428488757E0,3.475499898E-2,9.707030058E-1,-4.284519851E-1,1.061622974E0
1.433500371E0,5.483769774E-1,6.696149707E-1,-6.108959913E-1,1.059384458E0
1.438511757E0,9.687809944E-1,3.805750012E-1,-6.842100024E-1,1.245599163E0
1.443523202E0,1.254526973E0,5.337800086E-2,-5.676860213E-1,1.378025600E0
1.448534817E0,1.047523022E0,-2.327360064E-1,-7.056879997E-1,1.284315414E0
1.453546296E0,1.568521976E0,-7.666469812E-1,5.315589905E-1,1.824983218E0
1.458557909E0,1.678928018E0,-9.305210114E-1,7.566729784E-1,2.063303816E0
1.463569368E0,1.533481002E0,-1.243842959E0,9.997519851E-1,2.213190756E0
1.468580753E0,1.135970950E0,-1.467507958E0,1.287749052E0,2.258828729E0
1.473592366E0,7.913569808E-1,-1.503648996E0,1.470013022E0,2.246807616E0
1.478603824E0,6.326050162E-1,-1.352504969E0,1.481343985E0,2.103292371E0
1.483615438E0,6.448850036E-1,-1.069262028E0,1.311246991E0,1.810681260E0
1.488626825E0,7.315000296E-1,-7.240759730E-1,9.377549887E-1,1.392394602E0
1.493638284E0,8.273910284E-1,-3.301770091E-1,5.193669796E-1,1.031181279E0
1.498649899E0,8.794350028E-1,1.027000025E-1,1.695030034E-1,9.014901457E-1
1.503661363E0,8.730379939E-1,5.290669799E-1,2.441399917E-2,1.021128421E0
1.508672976E0,8.077780008E-1,9.203410149E-1,9.223700315E-2,1.228023024E0
1.513684363E0,6.646580100E-1,1.228073001E0,3.485360146E-1,1.439239702E0
1.518695823E0,3.729139864E-1,1.450132966E0,7.033169866E-1,1.654268794E0
1.523707414E0,-4.572200030E-2,1.564970970E0,1.004320025E0,1.860076168E0
1.528718878E0,-5.625470281E-1,1.591673017E0,1.199666977E0,2.071010141E0
1.533730262E0,-1.074780941E0,1.539754987E0,1.301756978E0,2.284856827E0
1.538741866E0,-1.498761058E0,1.459403992E0,1.282011986E0,2.453507581E0
1.543753329E0,-1.815333009E0,1.372125030E0,1.166584015E0,2.557162352E0
1.548764919E0,-2.000515938E0,1.282683015E0,9.241089821E-1,2.549768057E0
1.553776382E0,-2.075582981E0,1.191081047E0,6.259790063E-1,2.473574031E0
1.558787995E0,-2.061795950E0,1.121268988E0,3.507190049E-1,2.373025601E0
1.563799459E0,-1.965816975E0,1.099599004E0,9.558899701E-2,2.254482558E0
1.568810844E0,-1.811295986E0,1.118911982E0,-7.986199856E-2,2.130524609E0
1.573822457E0,-1.614644051E0,1.138556957E0,-2.262780070E-1,1.988614868E0
1.578833912E0,-1.413934946E0,1.129855990E0,-3.440960050E-1,1.842332394E0
1.583845296E0,-1.223520994E0,1.044986963E0,-4.792349935E-1,1.678888786E0
1.588856987E0,-9.671909809E-1,9.390029907E-1,-5.578430295E-1,1.458894738E0
1.593868368E0,-9.008219838E-1,8.133080006E-1,-7.241169810E-1,1.413257072E0
1.598879982E0,-7.164379954E-1,6.500030160E-1,-5.172700286E-1,1.096975663E0
1.603891445E0,-5.440660119E-1,5.665580034E-1,-2.380679995E-1,8.207753462E-1
1.608903059E0,-5.531529784E-1,4.740549922E-1,-1.885380000E-1,7.524977944E-1
1.613914445E0,-5.157610178E-1,4.305480123E-1,6.356000155E-2,6.748487921E-1
1.618925905E0,-5.033730268E-1,4.385800064E-1,3.388710022E-1,7.487124830E-1
1.623937520E0,-4.455220103E-1,4.431259930E-1,6.116669774E-1,8.769190377E-1
1.628948984E0,8.174899966E-2,4.407840073E-1,1.392802954E0,1.463172412E0
1.633960597E0,3.428919911E-1,5.416659713E-1,1.428949952E0,1.566165671E0
1.638971993E0,6.295909882E-1,5.905179977E-1,1.524801016E0,1.752174208E0
1.643983452E0,9.570329785E-1,6.696509719E-1,1.503332973E0,1.903773771E0
1.648995083E0,1.202996969E0,7.726110220E-1,1.108258963E0,1.808968609E0
1.654006469E0,1.884224057E0,6.911560297E-1,1.416532040E0,2.456534139E0
1.659018160E0,2.084373951E0,6.024739742E-1,9.464390278E-1,2.367136771E0
1.664029546E0,1.786818981E0,3.949469924E-1,4.358890057E-1,1.881144445E0
1.669040998E0,1.596287012E0,1.003210023E-1,5.491420031E-1,1.691080562E0
1.674052611E0,1.679625988E0,-1.801789999E-1,8.059719801E-1,1.871683404E0
1.679063998E0,1.373757005E0,-5.216820240E-1,8.291929960E-1,1.687282272E0
1.684075457E0,1.041555047E0,-8.346300125E-1,1.017997026E0,1.678619111E0
1.689087073E0,6.405100226E-1,-1.054924011E0,1.142457962E0,1.681763346E0
1.694098536E0,1.454779953E-1,-1.129125953E0,1.082340002E0,1.570843450E0
1.699109950E0,-3.360790014E-1,-1.100491047E0,1.038741946E0,1.550165949E0
1.704121640E0,-6.242250204E-1,-1.040086031E0,1.090067029E0,1.630853137E0
1.709133041E0,-6.627110243E-1,-8.799539804E-1,1.285624027E0,1.693025118E0
1.714144654E0,-9.780539870E-1,-6.125100255E-1,9.169920087E-1,1.473985236E0
1.719156147E0,-1.195610046E0,-3.638310134E-1,6.411169767E-1,1.404595090E0
1.724167760E0,-1.364915967E0,-1.552820057E-1,3.588699996E-1,1.419822445E0
1.729179214E0,-1.422250032E0,6.109000184E-3,7.658299804E-2,1.424323499E0
1.734190827E0,-1.342916965E0,1.362300068E-1,-2.718799934E-2,1.350082878E0
1.739202214E0,-1.179185033E0,2.380429953E-1,-6.229100004E-2,1.204583736E0
1.744213692E0,-9.748659730E-1,3.348979950E-1,-1.608269960E-1,1.043257233E0
1.749225308E0,-7.587689757E-1,4.313029945E-1,-2.956829965E-1,9.215102094E-1
1.754236771E0,-5.289790034E-1,4.942359924E-1,-3.752830029E-1,8.154295399E-1
1.759248390E0,-2.698169947E-1,5.457730293E-1,-3.847439885E-1,7.202064613E-1
1.764259776E0,3.510999959E-3,5.264509916E-1,-3.610880077E-1,6.383944885E-1
1.769271222E0,2.412389964E-1,4.765329957E-1,-3.865529895E-1,6.593202280E-1
1.774282837E0,4.090180099E-1,3.979240060E-1,-4.690000117E-1,7.386475871E-1
1.779294224E0,5.130839944E-1,3.025729954E-1,-5.628089905E-1,8.194873780E-1
1.784305688E0,5.689499974E-1,2.221750021E-1,-5.931310058E-1,8.513931061E-1
1.789317381E0,5.498880148E-1,1.382980049E-1,-5.548139811E-1,7.932980024E-1
1.794328791E0,4.858559966E-1,3.948400170E-2,-4.683279991E-1,6.759779217E-1
1.799340405E0,4.107629955E-1,-4.708699882E-2,-2.928879857E-1,5.066821450E-1
1.804351795E0,3.553529978E-1,-1.258720011E-1,-8.648099750E-2,3.867796228E-1
1.809363255E0,3.123379946E-1,-2.082609981E-1,1.712979972E-1,4.126386677E-1
1.814374870E0,2.815839946E-1,-2.651059926E-1,4.703019857E-1,6.088962893E-1
1.819386349E0,2.445819974E-1,-3.183220029E-1,7.284439802E-1,8.317330601E-1
1.824397962E0,1.948879957E-1,-3.616540134E-1,8.816689849E-1,9.726845096E-1
1.829409426E0,1.334300041E-1,-3.985350132E-1,9.280580282E-1,1.018786252E0
1.834420810E0,5.150099844E-2,-4.437659979E-1,9.309740067E-1,1.032614747E0
1.839432424E0,-1.075899974E-2,-4.594790041E-1,9.177659750E-1,1.026416629E0
1.844443872E0,-3.546600044E-2,-4.373030066E-1,8.193979859E-1,9.294648009E-1
1.849455257E0,-2.141699940E-2,-3.853189945E-1,6.616160274E-1,7.659407177E-1
1.854466866E0,-1.401100028E-2,-3.466410041E-1,5.015730262E-1,6.098621110E-1
1.859478330E0,3.060000017E-3,-3.095369935E-1,3.251259923E-1,4.489202878E-1
1.864489943E0,4.771500081E-2,-2.568159997E-1,2.005220056E-1,3.293026780E-1
1.869501407E0,1.072300002E-1,-2.237100005E-1,1.166879982E-1,2.741542015E-1
1.874513020E0,1.531420052E-1,-2.285269946E-1,9.097400308E-2,2.897470108E-1
1.879524468E0,1.717880070E-1,-2.584399879E-1,1.216479987E-1,3.333175397E-1
1.884535852E0,1.430429965E-1,-3.053770065E-1,2.141419947E-1,3.994661549E-1
1.889547447E0,9.391400218E-2,-3.655419946E-1,4.138199985E-1,5.600783702E-1
1.894558910E0,8.069899678E-2,-4.357700050E-1,6.742150187E-1,8.068294224E-1
1.899570524E0,8.630300313E-2,-4.826839864E-1,9.481610060E-1,1.067446173E0
1.904581972E0,1.335140020E-1,-5.521479845E-1,1.181833982E0,1.311268450E0
1.909593357E0,1.817229986E-1,-5.969359875E-1,1.391041040E0,1.524582237E0
1.914604970E0,2.472590059E-1,-6.040800214E-1,1.518571973E0,1.652909715E0
1.919616415E0,3.344509900E-1,-6.081560254E-1,1.554332018E0,1.702251226E0
1.924627800E0,4.288089871E-1,-6.106039882E-1,1.464686990E0,1.643782941E0
1.929639413E0,5.463709831E-1,-6.404740214E-1,1.314630985E0,1.561083871E0
1.934650868E0,6.772779822E-1,-6.477990150E-1,1.157076955E0,1.489018505E0
1.939662481E0,8.025299907E-1,-6.390230060E-1,1.074494958E0,1.485578743E0
1.944673943E0,9.226679802E-1,-5.829079747E-1,1.052188039E0,1.515980731E0
1.949685328E0,1.035554051E0,-5.173709989E-1,1.089522004E0,1.589686492E0
1.954696927E0,1.129824042E0,-5.083529949E-1,1.184916973E0,1.714337588E0
1.959708620E0,1.163930058E0,-5.742719769E-1,1.284592032E0,1.826115597E0
1.964720016E0,1.130174994E0,-6.977689862E-1,1.392351031E0,1.924270893E0
1.969731478E0,1.065276980E0,-8.307870030E-1,1.505530000E0,2.022780925E0
1.974743077E0,9.701499939E-1,-9.172409773E-1,1.563613057E0,2.056066101E0
1.979754464E0,8.619310260E-1,-1.019503951E0,1.593049049E0,2.078489517E0
1.984765910E0,7.501350045E-1,-1.121343970E0,1.575314999E0,2.074061756E0
1.989777602E0,6.765450239E-1,-1.225229979E0,1.553701997E0,2.091145993E0
1.994788988E0,6.074339747E-1,-1.298007011E0,1.552533031E0,2.112855188E0
1.999800587E0,5.564100146E-1,-1.347241044E0,1.565122962E0,2.138752071E0
2.004812050E0,4.995410144E-1,-1.326428056E0,1.580963969E0,2.123299245E0
2.009823416E0,3.806180060E-1,-1.285328031E0,1.482190013E0,1.998455766E0
2.014835029E0,2.571499944E-1,-1.138381004E0,1.274201989E0,1.727897028E0
2.019846483E0,-1.075101972E0,-1.263165951E0,-4.986270070E-1,1.732068521E0
2.024857868E0,-6.669899821E-2,-1.235430956E0,1.789458990E0,2.175523358E0
2.029869481E0,1.647959948E-1,-4.382340014E-1,1.353075981E0,1.431789569E0
2.034881183E0,-8.862700313E-2,-7.715199888E-2,9.145050049E-1,9.220230911E-1
2.039892570E0,-2.602069974E-1,2.259179950E-1,7.655029893E-1,8.394888019E-1
2.044904046E0,-3.476459980E-1,5.520719886E-1,5.763800144E-1,8.705487588E-1
2.049915659E0,-3.419539928E-1,8.548690081E-1,4.321770072E-1,1.017108903E0
2.054927046E0,-3.251909912E-1,1.146106005E0,2.350459993E-1,1.214312471E0
2.059938529E0,-2.637499869E-1,1.356642962E0,1.075859964E-1,1.386224703E0
2.064950145E0,-2.078509927E-1,1.481048942E0,-5.737999920E-3,1.495573779E0
2.069961618E0,-2.417359948E-1,1.457139015E0,-1.216360033E-1,1.482054560E0
2.074973003E0,-2.721689939E-1,1.333488941E0,-1.480460018E-1,1.369009254E0
2.079984616E0,-3.042750061E-1,1.178215027E0,-1.453409940E-1,1.225519454E0
2.084996094E0,-3.172760010E-1,1.008882046E0,-1.023169979E-1,1.062532734E0
2.090007707E0,-3.466790020E-1,8.703759909E-1,-6.150899827E-2,9.388951234E-1
2.095019186E0,-4.012849927E-1,7.692109942E-1,-3.189300001E-2,8.681776100E-1
2.100030799E0,-4.850459993E-1,6.880300045E-1,-1.772399992E-2,8.420029980E-1
2.105042277E0,-5.969399810E-1,6.448460221E-1,-3.946699947E-2,8.796143344E-1
2.110053661E0,-7.243000269E-1,6.270760298E-1,-8.934900165E-2,9.621944295E-1
2.115065275E0,-8.408070207E-1,6.593999863E-1,-2.062879950E-1,1.088264455E0
2.120076675E0,-9.300680161E-1,7.237619758E-1,-3.840189874E-1,1.239487190E0
2.125088135E0,-9.926580191E-1,8.240630031E-1,-5.951489806E-1,1.420792766E0
2.130099741E0,-1.024376035E0,9.452419877E-1,-8.435570002E-1,1.629238193E0
2.135111205E0,-1.005164981E0,1.081696033E0,-1.132879972E0,1.861139430E0
2.140122818E0,-9.691820145E-1,1.245251060E0,-1.419677019E0,2.122603782E0
2.145134267E0,-9.101529717E-1,1.364398956E0,-1.727895975E0,2.382349144E0
2.150145651E0,-8.130120039E-1,1.466413975E0,-2.007983923E0,2.615981250E0
2.155157265E0,-7.091130018E-1,1.537850022E0,-2.253566027E0,2.818933092E0
2.160168962E0,-5.987229943E-1,1.558619022E0,-2.446935892E0,2.962306152E0
2.165180349E0,-4.845609963E-1,1.530264974E0,-2.582540989E0,3.040728236E0
2.170191815E0,-3.876520097E-1,1.471076012E0,-2.643024921E0,3.049576929E0
2.175203429E0,-3.029470146E-1,1.368276954E0,-2.635087967E0,2.984568195E0
2.180214815E0,-2.370339930E-1,1.227628946E0,-2.579202890E0,2.866277288E0
2.185226294E0,-2.058209926E-1,1.045634031E0,-2.458000898E0,2.679082161E0
2.190237909E0,-2.131409943E-1,8.425269723E-1,-2.273107052E0,2.433576884E0
2.195249383E0,-2.510159910E-1,6.022109985E-1,-2.051939964E0,2.153166211E0
2.200260767E0,-3.278659880E-1,3.579680026E-1,-1.837574959E0,1.900610146E0
2.205272381E0,-4.054499865E-1,1.210160032E-1,-1.657938957E0,1.711080404E0
2.210283848E0,-4.905180037E-1,-1.017279997E-1,-1.488899946E0,1.570916786E0
2.215295462E0,-5.756160021E-1,-2.704449892E-1,-1.403524041E0,1.540893899E0
2.220306844E0,-6.087009907E-1,-3.966270089E-1,-1.367658973E0,1.548651331E0
2.225318304E0,-6.086220145E-1,-4.896999896E-1,-1.326473951E0,1.539402475E0
2.230329894E0,-5.464619994E-1,-5.352309942E-1,-1.318364978E0,1.524197871E0
2.235341358E0,-4.720830023E-1,-5.498600006E-1,-1.367416978E0,1.547590893E0
2.240352971E0,-3.445549905E-1,-5.358380079E-1,-1.464256048E0,1.596836337E0
2.245364440E0,-1.994519979E-1,-4.977250099E-1,-1.618749022E0,1.705244757E0
2.250376053E0,-4.844599962E-2,-4.640969932E-1,-1.778439999E0,1.838635870E0
2.255387445E0,1.013209969E-1,-3.893359900E-1,-1.919584036E0,1.961288181E0
2.260398904E0,2.476239949E-1,-3.117319942E-1,-2.030213118E0,2.068878871E0
2.265410509E0,3.592729867E-1,-2.217060030E-1,-2.110321999E0,2.152136048E0
2.270421972E0,4.243929982E-1,-1.240909994E-1,-2.190953016E0,2.235124854E0
2.275433343E0,4.571650028E-1,-2.135200053E-2,-2.228928089E0,2.275428789E0
2.280444956E0,4.452989995E-1,6.966000050E-2,-2.269560099E0,2.313881318E0
2.285456420E0,4.459269941E-1,1.610170007E-1,-2.274688959E0,2.323572082E0
2.290468033E0,4.295389950E-1,1.842949986E-1,-2.096613884E0,2.148082441E0
2.295479497E0,3.814840019E-1,1.626649946E-1,-1.957870960E0,2.001311730E0
2.300490871E0,2.956790030E-1,1.373050064E-1,-1.787435055E0,1.816921246E0
2.305502485E0,2.307389975E-1,8.101399988E-2,-1.546648979E0,1.565862963E0
2.310513948E0,9.353200346E-2,5.580599979E-2,-1.138017058E0,1.143217114E0
2.315525572E0,-5.843900144E-2,2.832799964E-2,-8.338909745E-1,8.364160148E-1
2.320536958E0,-1.949239969E-1,-2.862600051E-2,-5.852519870E-1,6.175230366E-1
2.325548418E0,-3.282000124E-1,-1.114249974E-1,-4.192869961E-1,5.439966575E-1
2.330560033E0,-4.401830137E-1,-2.008309960E-1,-9.749200195E-2,4.935573573E-1
2.335571521E0,-5.892329812E-1,-2.366410047E-1,1.435109973E-1,6.509914574E-1
2.340583134E0,-6.653689742E-1,-2.454909980E-1,3.855710030E-1,8.072463690E-1
2.345594531E0,-7.265099883E-1,-2.372239977E-1,6.386700273E-1,9.959876465E-1
2.350605990E0,-7.613959908E-1,-1.867440045E-1,8.422099948E-1,1.150614989E0
2.355617591E0,-7.544500232E-1,-1.008770019E-1,9.365620017E-1,1.206863451E0
2.360629054E0,-6.952670217E-1,-1.049599983E-2,1.041018009E0,1.251888531E0
2.365640668E0,-6.385380030E-1,1.502249986E-1,1.123512030E0,1.300991012E0
2.370652112E0,-5.489119887E-1,3.173780143E-1,1.061655045E0,1.236585868E0
2.375663497E0,-4.219940007E-1,4.658800066E-1,9.754700065E-1,1.160458897E0
2.380675100E0,-2.998229861E-1,5.977389812E-1,9.154790044E-1,1.133705217E0
2.385686564E0,-1.920939982E-1,7.034990191E-1,8.599979877E-1,1.127567077E0
2.390698177E0,-6.995099783E-2,7.856619954E-1,8.112850189E-1,1.131521672E0
2.395709559E0,4.044400156E-2,8.466989994E-1,7.859990001E-1,1.155997120E0
2.400721018E0,1.272599995E-1,8.794389963E-1,7.554240227E-1,1.166307639E0
2.405732420E0,2.241560072E-1,8.743090034E-1,7.171760201E-1,1.152824181E0
2.410744110E0,2.689180076E-1,8.433089852E-1,6.664230227E-1,1.107974090E0
2.415755726E0,3.022820055E-1,7.865219712E-1,6.413580179E-1,1.058929332E0
2.420767213E0,2.730070055E-1,6.949819922E-1,6.146110296E-1,9.670985019E-1
2.425778598E0,2.099100053E-1,5.692179799E-1,6.026269794E-1,8.551202227E-1
2.430790182E0,1.137830019E-1,4.311699867E-1,6.145169735E-1,7.592662509E-1
2.435801646E0,-5.315999966E-3,2.832570076E-1,6.239749789E-1,6.852791887E-1
2.440813259E0,-1.166789979E-1,1.232289970E-1,6.380239725E-1,6.602075157E-1
2.445824589E0,-2.229620069E-1,-3.715899959E-2,6.402029991E-1,6.789349953E-1
2.450836049E0,-3.081269860E-1,-1.811340004E-1,6.520410180E-1,7.435786810E-1
2.455847664E0,-3.750900030E-1,-3.041650057E-1,6.666989923E-1,8.232231820E-1
2.460859142E0,-4.104700089E-1,-4.090490043E-1,6.679030061E-1,8.842517411E-1
2.465870527E0,-4.127160013E-1,-5.221310258E-1,6.628550291E-1,9.393253406E-1
2.470882140E0,-4.153819978E-1,-6.056640148E-1,6.426479816E-1,9.758931967E-1
2.475893604E0,-3.881959915E-1,-6.953579783E-1,6.261730194E-1,1.013070331E0
2.480905202E0,-3.575670123E-1,-7.653980255E-1,5.996789932E-1,1.036003475E0
2.485916666E0,-3.050549924E-1,-8.255980015E-1,5.610100031E-1,1.043744620E0
2.490928051E0,-2.684429884E-1,-8.594539762E-1,5.344030261E-1,1.047047931E0
2.495939664E0,-2.240310013E-1,-8.983330131E-1,4.866389930E-1,1.045949139E0
2.500951128E0,-1.859840006E-1,-9.091579914E-1,4.397239983E-1,1.026896050E0
2.505962741E0,-1.658030003E-1,-8.995040059E-1,3.869360089E-1,9.931352207E-1
2.510974195E0,-1.443009973E-1,-8.766899705E-1,3.427639902E-1,9.523104720E-1
2.515985809E0,-1.377049983E-1,-8.291100264E-1,2.980409861E-1,8.917480203E-1
2.520997272E0,-1.500290036E-1,-7.620689869E-1,2.413980067E-1,8.133454619E-1
2.526008652E0,-1.689610034E-1,-6.947870255E-1,1.752939969E-1,7.362097641E-1
2.531020265E0,-1.710589975E-1,-6.043499708E-1,7.685299963E-2,6.327767785E-1
2.536031729E0,-1.707399935E-1,-5.004529953E-1,-2.271500044E-2,5.292648837E-1
2.541043327E0,-1.634339988E-1,-4.092110097E-1,-1.165079996E-1,4.557833218E-1
2.546054714E0,-1.423330009E-1,-3.016940057E-1,-1.832599938E-1,3.806076478E-1
2.551066165E0,-1.032159999E-1,-2.111379951E-1,-2.448469996E-1,3.393859880E-1
2.556077780E0,-6.513000280E-2,-1.232369989E-1,-3.155620098E-1,3.449763140E-1
2.561089244E0,-1.635799929E-2,-3.162100166E-2,-4.304180145E-1,4.318878779E-1
2.566100642E0,1.023800019E-2,4.718299955E-2,-5.537070036E-1,5.558079686E-1
2.571112256E0,5.239500105E-2,1.230280027E-1,-6.689919829E-1,6.822253285E-1
2.576123719E0,8.396799862E-2,2.010619938E-1,-7.598749995E-1,7.904976692E-1
2.581135333E0,8.898899704E-2,2.507529855E-1,-8.460469842E-1,8.868999948E-1
2.586146806E0,8.907999843E-2,3.032340109E-1,-9.394590259E-1,9.911959306E-1
2.591158191E0,7.960499823E-2,3.358519971E-1,-9.792850018E-1,1.038331659E0
2.596169818E0,7.012999803E-2,3.370470107E-1,-1.018612027E0,1.075215962E0
2.601181282E0,5.118700117E-2,3.480040133E-1,-1.026896954E0,1.085469601E0
2.606192895E0,1.151399966E-2,3.593389988E-1,-1.023450971E0,1.084762176E0
2.611204359E0,-2.973500080E-2,3.646599948E-1,-9.780820012E-1,1.044272705E0
2.616215972E0,-6.779800355E-2,3.708170056E-1,-9.430800080E-1,1.015628733E0
2.621227345E0,-1.213029996E-1,3.756709993E-1,-8.971830010E-1,9.801940904E-1
2.626238804E0,-1.665029973E-1,3.743979931E-1,-8.499429822E-1,9.435571940E-1
2.631250191E0,-1.897899956E-1,3.810069859E-1,-8.105949759E-1,9.155603643E-1
2.636261890E0,-2.219929993E-1,3.766700029E-1,-7.531790137E-1,8.708844984E-1
2.641273506E0,-2.326380014E-1,3.732169867E-1,-7.015200257E-1,8.279744594E-1
2.646284931E0,-2.246399969E-1,3.702040017E-1,-6.671130061E-1,7.953325682E-1
2.651296393E0,-2.122759968E-1,3.531250060E-1,-6.449819803E-1,7.653496741E-1
2.656308006E0,-1.910949945E-1,3.289839923E-1,-6.349539757E-1,7.402123448E-1
2.661319455E0,-1.519600004E-1,3.004379869E-1,-6.158440113E-1,7.018679875E-1
2.666331068E0,-1.185199991E-1,2.597950101E-1,-6.372640133E-1,6.983164470E-1
2.671342469E0,-8.815299720E-2,2.240650058E-1,-6.444759965E-1,6.879864735E-1
2.676353928E0,-3.071100079E-2,1.700250059E-1,-6.240599751E-1,6.475357294E-1
2.681365544E0,4.344000015E-3,1.310040057E-1,-6.044729948E-1,6.185212375E-1
2.686377006E0,5.028599873E-2,1.067800000E-1,-5.926409960E-1,6.042797367E-1
2.691388391E0,9.528300166E-2,6.431300193E-2,-5.628070235E-1,5.744273308E-1
2.696400004E0,1.323630065E-1,3.429299966E-2,-5.503389835E-1,5.670705178E-1
2.701411468E0,1.663500071E-1,1.214099955E-2,-5.219939947E-1,5.479940321E-1
2.706423068E0,1.972779930E-1,7.327000145E-3,-4.872150123E-1,5.256907453E-1
2.711434455E0,2.090339959E-1,-6.618999876E-3,-4.673190117E-1,5.119825009E-1
2.716445914E0,2.205850035E-1,-7.983000018E-3,-4.242529869E-1,4.782385064E-1
2.721457535E0,2.250300050E-1,-2.282099985E-2,-3.702999949E-1,4.339140323E-1
2.726468998E0,2.271980047E-1,-3.222300112E-2,-3.338890076E-1,4.051408700E-1
2.731480612E0,2.316659987E-1,-4.543799907E-2,-2.699710131E-1,3.586336496E-1
2.736492006E0,2.245409936E-1,-6.029200181E-2,-2.213249952E-1,3.209961632E-1
2.741503466E0,2.247419953E-1,-6.739299744E-2,-1.781650037E-1,2.946074492E-1
2.746515081E0,2.250410020E-1,-9.541799873E-2,-1.405490041E-1,2.819611137E-1
2.751526555E0,2.254160047E-1,-1.088640019E-1,-1.199470013E-1,2.775806715E-1
2.756538168E0,2.234839946E-1,-1.437740028E-1,-1.233529970E-1,2.929710252E-1
2.761549632E0,2.170079947E-1,-1.716459990E-1,-1.433079988E-1,3.115958941E-1
2.766561016E0,2.105969936E-1,-1.995539963E-1,-1.560280025E-1,3.294201401E-1
2.771572630E0,1.879799962E-1,-2.181320041E-1,-1.827650070E-1,3.410587896E-1
2.776584016E0,1.820520014E-1,-2.392860055E-1,-2.092660069E-1,3.663236073E-1
2.781595490E0,1.528269947E-1,-2.508119941E-1,-2.238329947E-1,3.692749060E-1
2.786607105E0,1.358489990E-1,-2.620379925E-1,-2.220059931E-1,3.693311807E-1
2.791618569E0,1.121189967E-1,-2.676270008E-1,-1.877309978E-1,3.455977554E-1
2.796630182E0,9.582599998E-2,-2.672719955E-1,-1.261859983E-1,3.107086224E-1
2.801641646E0,8.907499909E-2,-2.701500058E-1,-3.788900003E-2,2.869685652E-1
2.806653249E0,8.225599676E-2,-2.715730071E-1,4.617600143E-2,2.874894264E-1
2.811664636E0,8.944100142E-2,-2.620449960E-1,1.404619962E-1,3.104784132E-1
2.816676095E0,1.009749994E-1,-2.447019964E-1,1.980430037E-1,3.305995294E-1
2.821687478E0,1.144199967E-1,-2.386640012E-1,2.476129979E-1,3.624425994E-1
2.826699091E0,1.437620074E-1,-2.154230028E-1,3.013859987E-1,3.973765282E-1
2.831710554E0,1.746609956E-1,-1.990460008E-1,3.427889943E-1,4.331628660E-1
2.836722244E0,2.070789933E-1,-1.732449979E-1,3.604370058E-1,4.503447278E-1
2.841733631E0,2.318229973E-1,-1.638610065E-1,3.968229890E-1,4.879147632E-1
2.846745249E0,2.211789936E-1,-1.546649933E-1,3.952119946E-1,4.785748928E-1
2.851756636E0,1.761189997E-1,-1.478929967E-1,3.985129893E-1,4.601117725E-1
2.856768095E0,1.555349976E-1,-1.204399988E-1,3.646300137E-1,4.143090340E-1
2.861779726E0,1.516160071E-1,-1.101220027E-1,3.408119977E-1,3.889306967E-1
2.866791189E0,1.360830069E-1,-8.420400321E-2,2.753709853E-1,3.184934512E-1
2.871802569E0,1.323360056E-1,-5.172299966E-2,2.394119948E-1,2.783993361E-1
2.876814182E0,1.378429979E-1,-2.910800092E-2,2.205609977E-1,2.617157265E-1
2.881825646E0,1.569440067E-1,9.742000140E-3,1.975470036E-1,2.524898937E-1
2.886837254E0,1.823180020E-1,4.871299863E-2,2.126549929E-1,2.843148890E-1
2.891848718E0,2.091419995E-1,7.042499632E-2,1.757279932E-1,2.820999533E-1
2.896860331E0,2.118719965E-1,8.216200024E-2,1.345189959E-1,2.640751739E-1
2.901871805E0,2.236790061E-1,7.176899910E-2,6.772100180E-2,2.444774449E-1
2.906883190E0,2.117500007E-1,7.053600252E-2,1.819599979E-2,2.239296427E-1
2.911894807E0,1.978860050E-1,6.654500216E-2,-3.803599998E-2,2.122117942E-1
2.916906270E0,1.843300015E-1,6.244099885E-2,-7.735899836E-2,2.094298031E-1
2.921917655E0,1.850460023E-1,4.220199957E-2,-7.913500071E-2,2.056340927E-1
2.926929283E0,1.717559993E-1,3.677700087E-2,-7.187999785E-2,1.897877899E-1
2.931940747E0,1.773830056E-1,2.036900073E-2,-4.188099876E-2,1.833947789E-1
2.936952360E0,1.758109927E-1,6.947000045E-3,-2.455399930E-2,1.776532151E-1
2.941963824E0,1.719540060E-1,8.178999647E-3,-1.474899985E-2,1.727790763E-1
2.946975437E0,1.659449935E-1,-9.359000251E-3,-7.770000026E-3,1.663902180E-1
2.951986819E0,1.555709988E-1,-3.394399956E-2,-2.246499993E-2,1.608079817E-1
2.956998509E0,1.527709961E-1,-4.171400145E-2,-2.285500057E-2,1.600043319E-1
2.962009896E0,1.433099955E-1,-6.865800172E-2,-4.233499989E-2,1.644503823E-1
2.967021348E0,1.343110055E-1,-9.298299998E-2,-3.574300185E-2,1.672209516E-1
2.972032732E0,1.164380014E-1,-1.408340037E-1,-3.201200068E-2,1.855176351E-1
2.977044346E0,1.015549973E-1,-1.931139976E-1,-3.586899862E-2,2.211176578E-1
2.982055809E0,5.706600100E-2,-2.258969992E-1,-2.098499984E-2,2.339366430E-1
2.987067398E0,3.250199929E-2,-2.558619976E-1,5.869999877E-4,2.579187592E-1
2.992078785E0,-1.909299940E-2,-2.926410139E-1,1.217599958E-2,2.935158609E-1
2.997090245E0,-7.594200224E-2,-2.933790088E-1,3.797600046E-2,3.054187406E-1
3.002101851E0,-1.076890007E-1,-2.749820054E-1,7.338000089E-2,3.042969745E-1
3.007113315E0,-1.381870061E-1,-2.258169949E-1,1.092120036E-1,2.863847510E-1
3.012124928E0,-1.465130001E-1,-1.608320028E-1,1.222420037E-1,2.495517978E-1
3.017136392E0,-1.332489997E-1,-1.038020030E-1,1.362040043E-1,2.169831388E-1
3.022147776E0,-1.130089983E-1,-5.533900112E-2,1.015719995E-1,1.617105743E-1
3.027159399E0,-1.022730023E-1,-3.167099878E-2,7.514700294E-2,1.308047828E-1
3.032170785E0,-8.226499707E-2,-6.699999794E-3,4.044200107E-2,9.191286738E-2
3.037182476E0,-9.061899781E-2,-9.305000305E-3,-2.866199985E-2,9.549814674E-2
3.042193862E0,-7.323099673E-2,-1.020499971E-2,-6.345800310E-2,9.743633336E-2
3.047205310E0,-6.332600117E-2,-3.045400046E-2,-8.604600281E-2,1.110924982E-1
3.052216923E0,-5.848100036E-2,-4.392199963E-2,-1.177370027E-1,1.386043695E-1
3.057228363E0,-5.629200116E-2,-4.334500059E-2,-1.347009987E-1,1.522889934E-1
3.062239976E0,-6.814300269E-2,-4.320999980E-2,-1.630980074E-1,1.819657466E-1
3.067251363E0,-8.670300245E-2,-4.317500070E-2,-1.722240001E-1,1.975919976E-1
3.072262822E0,-9.084100276E-2,-4.091000184E-2,-1.859380007E-1,2.109470458E-1
3.077274438E0,-9.728399664E-2,-1.088200044E-2,-2.272270024E-1,2.474160556E-1
3.082285901E0,-1.222029999E-1,-5.400000009E-5,-2.349350005E-1,2.648169756E-1
3.087297286E0,-1.464390010E-1,2.685800008E-2,-2.609719932E-1,3.004531817E-1
3.092308899E0,-1.678570062E-1,4.171499982E-2,-2.653470039E-1,3.167414533E-1
3.097320353E0,-1.818789989E-1,5.197599903E-2,-2.555780113E-1,3.179647694E-1
3.102331966E0,-1.979739964E-1,6.474299729E-2,-2.459270060E-1,3.222816334E-1
3.107343358E0,-2.021220028E-1,7.070899755E-2,-2.247560024E-1,3.104324838E-1
3.112354817E0,-1.946520060E-1,8.165500313E-2,-2.038120031E-1,2.934216686E-1
3.117366442E0,-1.758320034E-1,8.343199641E-2,-1.809650064E-1,2.657557618E-1
3.122377905E0,-1.551620066E-1,8.323600143E-2,-1.562349945E-1,2.353993495E-1
3.127389295E0,-1.373330057E-1,7.857199758E-2,-1.390710026E-1,2.106529302E-1
3.132400908E0,-1.106050014E-1,7.880199701E-2,-1.340110004E-1,1.907935253E-1
3.137412358E0,-7.289899886E-2,6.329400092E-2,-7.993999869E-2,1.253427221E-1
3.142423971E0,-2.665599994E-2,3.009100072E-2,-3.709000070E-3,4.037037700E-2
3.147435353E0,3.934499994E-2,6.816999987E-3,1.222699974E-2,4.176122641E-2
3.152446812E0,9.432899952E-2,-3.288999945E-2,8.611000143E-3,1.002689460E-1
3.157458505E0,1.409910023E-1,-7.021100074E-2,-9.376999922E-3,1.577845857E-1
3.162470120E0,2.003290057E-1,-1.004099995E-1,-3.211700171E-2,2.263744251E-1
3.167481584E0,2.370090038E-1,-1.334799975E-1,-8.780000359E-2,2.858304012E-1
3.172492968E0,2.726329863E-1,-1.529780030E-1,-1.569039971E-1,3.497854756E-1
3.177504582E0,3.070400059E-1,-1.776439995E-1,-2.088100016E-1,4.116218806E-1
3.182515982E0,3.286379874E-1,-1.882070005E-1,-2.460539937E-1,4.516274677E-1
3.187527442E0,3.331950009E-1,-1.866440028E-1,-2.547659874E-1,4.590867028E-1
3.192539057E0,3.235709965E-1,-1.822250038E-1,-2.400880009E-1,4.422062754E-1
3.197550444E0,2.886309922E-1,-1.651439965E-1,-1.975129992E-1,3.867709581E-1
3.202562134E0,2.523500025E-1,-1.354269981E-1,-1.461510062E-1,3.215293334E-1
3.207573507E0,2.055640072E-1,-9.791500121E-2,-8.354800195E-2,2.425369603E-1
3.212584968E0,1.440059990E-1,-6.482599676E-2,-3.332100064E-2,1.614014457E-1
3.217596582E0,8.434700221E-2,-2.204800025E-2,1.199600007E-2,8.800247220E-2
3.222607972E0,4.736400023E-2,8.666000329E-3,3.351400048E-2,5.866546094E-2
3.227619432E0,1.612200029E-2,4.157099873E-2,5.528299883E-2,7.102307223E-2
3.232631124E0,8.979000151E-3,6.443800032E-2,5.129100010E-2,8.284711836E-2
3.237642526E0,1.833700016E-2,7.742799819E-2,5.245200172E-2,9.530242894E-2
3.242654139E0,2.969300002E-2,7.326400280E-2,3.016700037E-2,8.461286112E-2
3.247665540E0,4.995600134E-2,5.459100008E-2,1.284299977E-2,7.510474022E-2
3.252676999E0,8.116900176E-2,3.322900087E-2,-1.370199956E-2,8.877115600E-2
3.257688615E0,1.137610003E-1,1.377000008E-2,-5.641699955E-2,1.277264888E-1
3.262700094E0,1.360339969E-1,-2.230699919E-2,-8.014799654E-2,1.594570534E-1
3.267711708E0,1.436969936E-1,-3.709600121E-2,-1.083659977E-1,1.837610642E-1
3.272723098E0,1.419650018E-1,-5.187299848E-2,-1.198450029E-1,1.928929611E-1
3.277734558E0,1.473290026E-1,-6.888999790E-2,-1.267189980E-1,2.061780087E-1
3.282746188E0,1.247989982E-1,-9.764999896E-2,-1.362469941E-1,2.089821898E-1
3.287757652E0,1.032089964E-1,-9.979800135E-2,-1.245829985E-1,1.900859319E-1
3.292769037E0,7.776600122E-2,-1.136619970E-1,-1.227850020E-1,1.845067945E-1
3.297780654E0,7.654099911E-2,-1.273259968E-1,-1.212259978E-1,1.917450822E-1
3.302792118E0,4.768300056E-2,-1.478790045E-1,-1.224059984E-1,1.978006495E-1
3.307803722E0,4.080000147E-2,-1.634269953E-1,-1.214530021E-1,2.076628388E-1
3.312815185E0,1.801499911E-2,-1.668059975E-1,-1.111729965E-1,2.012665301E-1
3.317826570E0,7.495999802E-3,-1.698410064E-1,-9.173099697E-2,1.931753951E-1
3.322838184E0,-7.292000111E-3,-1.630949974E-1,-6.774900109E-2,1.767571175E-1
3.327849647E0,-1.458500046E-2,-1.680389941E-1,-4.648699984E-2,1.749596151E-1
3.332861274E0,-3.325400129E-2,-1.702799946E-1,-2.080300078E-2,1.747394346E-1
3.337872738E0,-5.130600184E-2,-1.725060046E-1,-1.427599974E-2,1.805392800E-1
3.342884137E0,-5.956700072E-2,-1.651960015E-1,-2.915000077E-3,1.756315567E-1
3.347895750E0,-6.988500059E-2,-1.513350010E-1,-2.190699987E-2,1.681252880E-1
3.352907229E0,-7.989200205E-2,-1.283040047E-1,-2.605699934E-2,1.533741074E-1
3.357918842E0,-8.491499722E-2,-1.104969978E-1,-3.446599841E-2,1.435550359E-1
3.362930306E0,-9.196799994E-2,-9.807900339E-2,-6.607899815E-2,1.498133436E-1
3.367941948E0,-7.320400327E-2,-7.401300222E-2,-6.620699912E-2,1.233698396E-1
3.372953335E0,-6.415499747E-2,-6.478100270E-2,-9.448099881E-2,1.312977576E-1
3.377964794E0,-5.528900027E-2,-5.375700071E-2,-1.292160004E-1,1.504774516E-1
3.382976181E0,-4.899799824E-2,-5.258899927E-2,-1.516470015E-1,1.678190089E-1
3.387987871E0,-4.980700091E-2,-4.689799994E-2,-1.713690013E-1,1.845196313E-1
3.392999500E0,-5.298100039E-2,-6.516300142E-2,-1.982309967E-1,2.152875547E-1
3.398010887E0,-6.549300253E-2,-5.004699901E-2,-1.986259967E-1,2.150495805E-1
3.403022354E0,-8.012700081E-2,-6.565199792E-2,-1.946859956E-1,2.205292678E-1
3.408033967E0,-9.221699834E-2,-7.154600322E-2,-1.956949979E-1,2.278581523E-1
3.413045368E0,-1.181090027E-1,-6.490299851E-2,-1.590880007E-1,2.084973086E-1
3.418056827E0,-1.179160029E-1,-9.101500362E-2,-1.329450011E-1,1.996554230E-1
3.423068458E0,-1.386950016E-1,-9.960299730E-2,-9.095899761E-2,1.934698937E-1
3.428079844E0,-1.706700027E-1,-1.102029979E-1,-7.573399693E-2,2.168146417E-1
3.433091535E0,-2.134640068E-1,-1.114090011E-1,-8.659300208E-2,2.558851221E-1
3.438102998E0,-2.551389933E-1,-9.806100279E-2,-6.654299796E-2,2.813180348E-1
3.443114383E0,-2.772679925E-1,-7.976999879E-2,-4.427000135E-2,2.918914617E-1
3.448125990E0,-2.710880041E-1,-7.064700127E-2,-1.290199999E-2,2.804392383E-1
3.453137377E0,-2.676770091E-1,-5.799499899E-2,7.215499878E-2,2.832326693E-1
3.458148836E0,-2.483090013E-1,-4.091300070E-2,7.148399949E-2,2.616126831E-1
3.463160457E0,-2.110700011E-1,-1.239799988E-2,6.663700193E-2,2.216861426E-1
3.468171920E0,-1.842059940E-1,1.074500009E-2,5.051200092E-2,1.913080382E-1
3.473183305E0,-1.255300045E-1,2.857699990E-2,3.017899953E-2,1.322316111E-1
3.478194918E0,-6.622800231E-2,1.253699977E-2,-8.898999542E-3,6.798909358E-2
3.483206611E0,-4.331099987E-2,-9.114000015E-3,-8.290299773E-2,9.397773534E-2
3.488217977E0,-4.191900045E-2,-4.064900056E-2,-1.445730031E-1,1.559195211E-1
3.493229439E0,-3.588699922E-2,-6.762800366E-2,-1.916150004E-1,2.063437228E-1
3.498241052E0,-1.841899939E-2,-1.015200019E-1,-2.222380042E-1,2.450210212E-1
3.503252435E0,-6.027999800E-3,-1.209750026E-1,-2.529639900E-1,2.804675886E-1
3.508263894E0,-5.439000204E-3,-1.586599946E-1,-2.440890074E-1,2.911735224E-1
3.513275519E0,-4.918999970E-3,-1.761990041E-1,-2.076950073E-1,2.724105388E-1
3.518286982E0,2.010000026E-4,-1.901150048E-1,-1.512259990E-1,2.429260345E-1
3.523298596E0,-1.328200009E-2,-2.078139931E-1,-1.078919992E-1,2.345287845E-1
3.528309982E0,-1.460000034E-2,-2.081249952E-1,-6.769400090E-2,2.193436833E-1
3.533321673E0,-2.973400056E-2,-2.101069987E-1,-2.354099974E-2,2.135023193E-1
3.538333059E0,-5.125600100E-2,-2.023350000E-1,1.290000044E-3,2.087301942E-1
3.543344521E0,-7.196799666E-2,-1.993419975E-1,1.896799915E-2,2.127825404E-1
3.548355905E0,-8.258499950E-2,-1.866469979E-1,5.327000096E-2,2.109385621E-1
3.553367514E0,-9.977799654E-2,-1.927260011E-1,9.195999801E-2,2.357023575E-1
3.558378977E0,-7.229799777E-2,-2.039400041E-1,8.558200300E-2,2.326860653E-1
3.563390591E0,-9.891399741E-2,-2.133439928E-1,5.839399993E-2,2.423004280E-1
3.568401977E0,-8.299600333E-2,-2.065169960E-1,4.377000034E-2,2.268334613E-1
3.573413668E0,-6.290800124E-2,-1.761469990E-1,5.590999871E-2,1.952206696E-1
3.578425040E0,-4.582599923E-2,-1.320639998E-1,6.639000028E-2,1.547532047E-1
3.583436502E0,-2.704099938E-2,-9.127700329E-2,5.397700146E-2,1.094359341E-1
3.588448192E0,-4.269000143E-3,-4.470099881E-2,9.654000401E-3,4.593041891E-2
3.593459550E0,1.303100027E-2,1.269599982E-2,-9.432000108E-3,2.049287694E-2
3.598470934E0,3.434399888E-2,1.361059994E-1,3.721100092E-2,1.452205630E-1
3.603482553E0,6.432799995E-2,1.688629985E-1,1.002549976E-1,2.066491432E-1
3.608494016E0,6.328299642E-2,1.008680016E-1,4.155400023E-2,1.261183028E-1
3.613505625E0,6.452199817E-2,4.627300054E-2,-5.671500042E-2,9.757494606E-2
3.618517011E0,3.306499869E-2,1.736800000E-2,-1.255020052E-1,1.309415705E-1
3.623528466E0,3.705300018E-2,3.270699829E-2,-1.928779930E-1,1.991094994E-1
3.628540081E0,7.547999918E-2,1.930399984E-2,-2.195840031E-1,2.329957276E-1
3.633551545E0,1.057630032E-1,1.617100090E-2,-1.944909990E-1,2.219776178E-1
3.638563168E0,1.282809973E-1,2.062699944E-2,-1.794620007E-1,2.215583379E-1
3.643574555E0,1.294299960E-1,1.660599932E-2,-1.178489998E-1,1.758302302E-1
3.648586015E0,1.421560049E-1,1.302700024E-2,-9.744200110E-2,1.728380052E-1
3.653597630E0,1.244139969E-1,5.187000148E-3,-6.566199660E-2,1.407737383E-1
3.658609083E0,1.258569956E-1,-1.178000029E-2,-5.115199834E-2,1.363645067E-1
3.663620468E0,1.227459982E-1,-3.328499943E-2,-5.367400125E-2,1.380411883E-1
3.668632063E0,1.012139991E-1,-6.388399750E-2,-4.955499992E-2,1.295420270E-1
3.673643527E0,9.665700048E-2,-7.473400235E-2,-1.981499977E-2,1.237755269E-1
3.678655153E0,1.201229990E-1,-9.038099647E-2,-3.076099977E-2,1.534421667E-1
3.683666540E0,1.823329926E-1,-6.159500033E-2,-7.405000180E-2,2.062102495E-1
3.688678000E0,1.894270033E-1,-5.465399846E-2,-8.826299757E-2,2.160092726E-1
3.693689634E0,1.800400019E-1,-3.150000051E-2,-1.090110019E-1,2.128145926E-1
3.698701098E0,1.778309941E-1,-1.806600019E-2,-1.152260005E-1,2.126670497E-1
3.703712711E0,1.710209996E-1,1.673699915E-2,-1.020959988E-1,1.998797198E-1
3.708724175E0,1.110560000E-1,2.262200043E-2,-1.197829992E-1,1.649034776E-1
3.713735788E0,6.217899919E-2,4.053800181E-2,-1.040130034E-1,1.277820895E-1
3.718747175E0,-1.076699980E-2,4.196099937E-2,-9.327200055E-2,1.028412361E-1
3.723758634E0,-3.507100046E-2,2.707199939E-2,-8.302599937E-2,9.410730468E-2
3.728770235E0,-2.376499958E-2,1.025700010E-2,-6.376499683E-2,6.881828301E-2
3.733781622E0,2.680600062E-2,-3.894099966E-2,-2.909800038E-2,5.551267197E-2
3.738793073E0,7.825399935E-2,-1.135800034E-1,-2.661200054E-2,1.404717201E-1
3.743804688E0,1.283069998E-1,-2.048140019E-1,-8.416099846E-2,2.559190013E-1
3.748816133E0,1.026239991E-1,-3.003570139E-1,-1.350660026E-1,3.449475990E-1
3.753827746E0,5.445599928E-2,-3.696340024E-1,-2.002290040E-1,4.238943331E-1
3.758839210E0,7.579000201E-3,-4.220679998E-1,-2.415370047E-1,4.863527140E-1
3.763850823E0,-3.576999903E-2,-4.574379921E-1,-2.616440058E-1,5.281918167E-1
3.768862286E0,-7.114999741E-2,-4.704039991E-1,-2.300940007E-1,5.284746859E-1
3.773873694E0,-1.034030020E-1,-4.794859886E-1,-1.452219933E-1,5.115549056E-1
3.778885308E0,-1.349309981E-1,-4.472639859E-1,-7.540199906E-2,4.732197257E-1
3.783896694E0,-1.725379974E-1,-3.980770111E-1,-8.178000338E-3,4.339372616E-1
3.788908370E0,-1.905930042E-1,-3.539150059E-1,2.824399993E-2,4.029630854E-1
3.793919757E0,-1.780579984E-1,-2.867819965E-1,3.706099838E-2,3.395910510E-1
3.798931205E0,-1.589799970E-1,-2.089570016E-1,4.016400129E-2,2.656140338E-1
3.803942818E0,-1.450890005E-1,-1.062280014E-1,4.968500137E-2,1.865577811E-1
3.808954282E0,-9.903699905E-2,-4.287299886E-2,4.846199974E-2,1.183004084E-1
3.813965656E0,-7.276199758E-2,1.009999961E-2,5.054499954E-2,8.916902636E-2
3.818977347E0,-4.244099930E-2,5.292199925E-2,5.566899851E-2,8.775542046E-2
3.823988733E0,-1.750100031E-2,9.025499970E-2,4.483700171E-2,1.022868843E-1
3.829000118E0,-1.183599979E-2,1.104699969E-1,4.878199846E-2,1.213399954E-1
3.834011731E0,-1.718000043E-3,1.111849993E-1,3.398799896E-2,1.162765655E-1
3.839023195E0,1.263500005E-2,1.161660030E-1,1.259799954E-2,1.175282650E-1
3.844034802E0,1.253200043E-2,1.018610001E-1,-3.840999911E-3,1.027008649E-1
3.849046266E0,6.549999816E-4,7.786899805E-2,-2.971100062E-2,8.334718616E-2
3.854057875E0,-1.104400028E-2,5.172900110E-2,-3.910600021E-2,6.578099080E-2
3.859069339E0,-3.414599970E-2,3.524399921E-2,-5.097100139E-2,7.075402291E-2
3.864080961E0,-5.899199843E-2,2.385699935E-2,-4.642700031E-2,7.876978263E-2
3.869092348E0,-6.931699812E-2,1.011699997E-2,-6.106299907E-2,9.292948818E-2
3.874103807E0,-8.177399635E-2,-5.582999904E-3,-5.465500057E-2,9.851561021E-2
3.879115423E0,-8.919499815E-2,-3.057100065E-2,-6.292600185E-2,1.133579088E-1
3.884126881E0,-8.477900177E-2,-4.343700036E-2,-7.138299942E-2,1.190369050E-1
3.889138266E0,-9.675700217E-2,-6.104800105E-2,-9.183999896E-2,1.467084228E-1
3.894149879E0,-8.044099808E-2,-6.660299748E-2,-9.805999696E-2,1.432566803E-1
3.899161343E0,-7.840099931E-2,-8.169200271E-2,-1.162810028E-1,1.623008675E-1
3.904172956E0,-6.473000348E-2,-1.011470035E-1,-1.158600003E-1,1.668659022E-1
3.909184343E0,-4.198100045E-2,-1.109350026E-1,-1.251389980E-1,1.724202657E-1
3.914195802E0,-3.378999978E-2,-1.440259963E-1,-1.184019968E-1,1.894842594E-1
3.919207423E0,-7.184999995E-3,-1.673939973E-1,-1.357949972E-1,2.156679295E-1
3.924218886E0,2.408999950E-3,-1.783699989E-1,-1.177999973E-1,2.137720729E-1
3.929230500E0,3.263299912E-2,-1.915230006E-1,-1.144459993E-1,2.254858291E-1
3.934241886E0,5.955500156E-2,-1.901579946E-1,-9.695000201E-2,2.215991065E-1
3.939253351E0,6.474100053E-2,-1.911599934E-1,-9.623999894E-2,2.235971324E-1
3.944264966E0,9.528599679E-2,-1.807159930E-1,-1.117110029E-1,2.328455271E-1
3.949276430E0,1.063229963E-1,-1.468230039E-1,-1.050980017E-1,2.095403636E-1
3.954288043E0,1.194209978E-1,-1.301440001E-1,-1.123140007E-1,2.093161968E-1
3.959299507E0,1.322759986E-1,-9.479500353E-2,-1.070199981E-1,1.947724634E-1
3.964311120E0,1.239380017E-1,-7.890599966E-2,-1.061329991E-1,1.812484442E-1
3.969322579E0,1.368490010E-1,-5.141200125E-2,-9.765700251E-2,1.758059530E-1
3.974333963E0,1.518470049E-1,-2.699200064E-2,-1.099309996E-1,1.893961606E-1
3.979345582E0,1.479080021E-1,-1.506299991E-2,-1.287599951E-1,1.966794534E-1
3.984356968E0,1.534509957E-1,1.180000021E-3,-1.398629993E-1,2.076301015E-1
3.989368659E0,1.402219981E-1,-2.063000109E-3,-1.625120044E-1,2.146546442E-1
3.994380045E0,1.087490022E-1,6.138999946E-3,-1.869190037E-1,2.163394249E-1
3.999391507E0,8.959399909E-2,-4.697999917E-3,-1.898950040E-1,2.100220665E-1
4.004403120E0,7.310800254E-2,-1.816200092E-2,-2.189030051E-1,2.315019740E-1
4.009414584E0,6.852000207E-2,-3.614699841E-2,-2.218980044E-1,2.350325946E-1
4.014426187E0,7.085800171E-2,-4.405400157E-2,-2.063429952E-1,2.225736802E-1
4.019437574E0,8.236700296E-2,-7.757200301E-2,-1.964150071E-1,2.266728785E-1
4.024449048E0,1.097550020E-1,-8.878000081E-2,-1.634850055E-1,2.159986019E-1
4.029460664E0,1.061159968E-1,-1.091860011E-1,-1.620959938E-1,2.223899701E-1
4.034472127E0,7.255599648E-2,-9.883099794E-2,-1.865890026E-1,2.232653011E-1
4.039483751E0,4.930099845E-2,-8.391100168E-2,-1.964440048E-1,2.192302252E-1
4.044495214E0,4.058500007E-2,-7.139900327E-2,-1.919199973E-1,2.087540306E-1
4.049506594E0,4.130500183E-2,-6.260199845E-2,-1.288339943E-1,1.490748519E-1
4.054518207E0,3.741500154E-2,-5.517899990E-2,-6.215500087E-2,9.114739987E-2
4.059529671E0,4.751300067E-2,-4.070800170E-2,-5.276200175E-2,8.184409242E-2
4.064541284E0,7.598499954E-2,-1.673099957E-2,-3.612900153E-2,8.578432988E-2
4.069552671E0,8.995299786E-2,9.511999786E-3,-1.934999973E-2,9.250104029E-2
4.074564135E0,1.060340032E-1,1.656099968E-2,-1.926399954E-2,1.090347569E-1
4.079575751E0,1.124769971E-1,9.270999581E-3,-2.159399912E-2,1.149057314E-1
4.084587204E0,6.312400103E-2,-1.498300023E-2,-5.713700131E-2,8.645094979E-2
4.089598818E0,5.960999988E-3,-2.758800052E-2,-9.466399997E-2,9.878210458E-2
4.094610281E0,-2.165400051E-2,-2.848399989E-2,-1.175149977E-1,1.228413964E-1
4.099621671E0,-4.148000106E-2,-3.627799824E-2,-1.191470027E-1,1.312733480E-1
4.104633284E0,-6.526499987E-2,-4.361600056E-2,-1.093330011E-1,1.345941337E-1
4.109644753E0,-7.434500009E-2,-5.502700061E-2,-8.599100262E-2,1.262917351E-1
4.114656366E0,-7.835900038E-2,-7.524099946E-2,-5.875900015E-2,1.235069271E-1
4.119667830E0,-7.758600265E-2,-7.820899785E-2,-3.449999914E-2,1.154403963E-1
4.124679443E0,-6.743600219E-2,-1.067209989E-1,-1.594300009E-2,1.272445097E-1
4.129690907E0,-6.210599840E-2,-1.206939965E-1,-2.152599953E-2,1.374320359E-1
4.134702520E0,-7.534399629E-2,-1.464709938E-1,-3.924399987E-2,1.693238356E-1
4.139713907E0,-7.187400013E-2,-1.649380028E-1,-4.992699996E-2,1.867166891E-1
4.144725375E0,-8.685100079E-2,-1.735859960E-1,-3.934700042E-2,1.980489354E-1
4.149736991E0,-1.083230004E-1,-1.865680069E-1,-1.730299927E-2,2.164275569E-1
4.154748445E0,-1.176080033E-1,-2.016299963E-1,1.997000072E-3,2.334315443E-1
4.159759830E0,-1.405179948E-1,-2.048660070E-1,4.739999771E-3,2.484710351E-1
4.164771520E0,-1.304129958E-1,-2.080409974E-1,2.655299939E-2,2.469689613E-1
4.169782902E0,-1.416209936E-1,-2.088270038E-1,4.599099979E-2,2.564768906E-1
4.174794515E0,-1.364350021E-1,-1.984830052E-1,1.854399964E-2,2.415655047E-1
4.179805979E0,-1.292449981E-1,-1.910340041E-1,8.422000334E-3,2.308011922E-1
4.184817348E0,-1.108359993E-1,-1.725450009E-1,-2.696499974E-2,2.068417445E-1
4.189829039E0,-8.839300275E-2,-1.476889998E-1,-5.186200142E-2,1.797638194E-1
4.194840425E0,-5.968299881E-2,-1.305969954E-1,-7.371500134E-2,1.614048852E-1
4.199852039E0,-4.336500168E-2,-1.050150022E-1,-1.230420023E-1,1.674753964E-1
4.204863488E0,-1.582800038E-2,-8.702299744E-2,-1.408080012E-1,1.662841570E-1
4.209875102E0,6.295999978E-3,-6.223699823E-2,-1.485770047E-1,1.612085912E-1
4.214886473E0,2.789600007E-2,-4.712000117E-2,-1.490689963E-1,1.588082082E-1
4.219898164E0,3.748600185E-2,-4.896099865E-2,-1.684670001E-1,1.793976306E-1
4.224909626E0,4.237699881E-2,-3.630400077E-2,-1.616999954E-1,1.710575313E-1
4.229921240E0,4.031300172E-2,-4.245499894E-2,-1.505289972E-1,1.615132937E-1
4.234932613E0,5.013899878E-2,-2.712799981E-2,-1.512569934E-1,1.616432047E-1
4.239944073E0,3.657599911E-2,-2.817000076E-2,-1.332670003E-1,1.410370378E-1
4.244955688E0,1.882800087E-2,-3.385100141E-2,-1.369619966E-1,1.423340171E-1
4.249967075E0,-3.098000074E-3,-3.950300068E-2,-1.430619955E-1,1.484480354E-1
4.254978534E0,-1.512499992E-2,-3.786100075E-2,-1.397140026E-1,1.455411403E-1
4.259990145E0,-1.994399913E-2,-3.400199860E-2,-1.529069990E-1,1.579064576E-1
4.265001608E0,-4.552200064E-2,-2.364699915E-2,-1.987760067E-1,2.052884165E-1
4.270013222E0,-9.581000358E-2,-4.892999772E-3,-2.719280124E-1,2.883545424E-1
4.275024694E0,-8.652800322E-2,1.013199985E-2,-3.626689911E-1,3.729859915E-1
4.280036308E0,-3.111699969E-2,1.010300033E-2,-4.287180007E-1,4.299644897E-1
4.285047694E0,1.322299987E-2,2.222600020E-2,-4.352140129E-1,4.359817425E-1
4.290059154E0,7.906100154E-2,1.846100017E-2,-3.973369896E-1,4.055467098E-1
4.295070769E0,1.262319982E-1,4.865099862E-2,-3.576740026E-1,3.824030978E-1
4.300082237E0,1.066220030E-1,2.304599993E-2,-2.768450081E-1,2.975609655E-1
4.305093850E0,7.776600122E-2,-1.288199984E-2,-1.955389977E-1,2.108293065E-1
4.310105314E0,3.798300028E-2,-6.601200253E-2,-1.069040000E-1,1.312583636E-1
4.315116694E0,-5.176800117E-2,-1.501680017E-1,-9.108999744E-3,1.591016296E-1
4.320128385E0,-8.294899762E-2,-2.186699957E-1,2.978299931E-2,2.357628687E-1
4.325139785E0,-3.415200114E-2,-2.054769993E-1,7.542499900E-2,2.215312323E-1
4.330151399E0,-5.152599886E-2,-1.887349933E-1,1.843709946E-1,2.688279932E-1
4.335162867E0,-6.123400107E-2,-1.737889946E-1,2.615489960E-1,3.199376421E-1
4.340174481E0,-3.094499931E-2,-1.424880028E-1,2.961139977E-1,3.300665441E-1
4.345185958E0,7.860999554E-3,-1.337250024E-1,2.672100067E-1,2.989069408E-1
4.350197343E0,3.629299998E-2,-1.214770004E-1,2.158659995E-1,2.503437101E-1
4.355208956E0,5.922900140E-2,-1.177729964E-1,1.445450038E-1,1.956318262E-1
4.360220649E0,8.129499853E-2,-1.008389965E-1,9.364099801E-2,1.598312125E-1
4.365232035E0,9.325999767E-2,-9.160800278E-2,6.486299634E-2,1.459337577E-1
4.370243516E0,9.996899962E-2,-7.766699791E-2,6.726499647E-2,1.433546065E-1
4.375255129E0,1.086509973E-1,-8.448600024E-2,1.046530008E-1,1.729022094E-1
4.380266516E0,9.847000241E-2,-8.346600085E-2,1.436890066E-1,1.931565305E-1
4.385277990E0,6.543400139E-2,-9.151999652E-2,1.630530059E-1,1.981004822E-1
4.390289683E0,4.972200096E-2,-8.292199671E-2,1.610209942E-1,1.878193161E-1
4.395301083E0,2.995700017E-2,-8.670800179E-2,1.212119982E-1,1.520133150E-1
4.400312697E0,8.480000310E-3,-8.885499835E-2,6.075999886E-2,1.079763798E-1
4.405324155E0,6.107000168E-3,-1.132500023E-1,-1.562500000E-2,1.144858030E-1
4.410335769E0,8.120000362E-3,-1.262519956E-1,-7.701300085E-2,1.481097670E-1
4.415347223E0,-6.570999976E-3,-1.299600005E-1,-1.093640029E-1,1.699801898E-1
4.420358837E0,-1.204099972E-2,-1.358399987E-1,-1.084809974E-1,1.742573319E-1
4.425370324E0,-2.720800042E-2,-1.484040022E-1,-9.380900115E-2,1.776630289E-1
4.430381709E0,-3.314900026E-2,-1.509110034E-1,-6.534399837E-2,1.677582346E-1
4.435393399E0,-3.243299946E-2,-1.436920017E-1,-4.664300010E-2,1.545149192E-1
4.440404762E0,-1.818400063E-2,-1.363759935E-1,-2.568499930E-2,1.399599538E-1
4.445416375E0,6.900000153E-5,-1.219910011E-1,-1.180300023E-2,1.225606785E-1
4.450427839E0,6.175000221E-3,-1.079630032E-1,-9.480999783E-3,1.085542724E-1
4.455439223E0,1.457399968E-2,-9.413400292E-2,-2.147000050E-3,9.527970184E-2
4.460450827E0,1.844099909E-2,-8.060699701E-2,3.147999989E-3,8.274943093E-2
4.465462290E0,1.571400091E-2,-6.017300114E-2,1.116800029E-2,6.318579050E-2
4.470473894E0,2.291600034E-2,-5.417999998E-2,2.168699913E-2,6.269722003E-2
4.475485357E0,2.818099968E-2,-3.195900097E-2,2.324200049E-2,4.853593589E-2
4.480496971E0,2.465800010E-2,-3.137800097E-2,2.972799912E-2,4.976293647E-2
4.485508357E0,4.966000095E-2,-3.116500005E-2,1.987499930E-2,6.190628821E-2
4.490519817E0,6.284700334E-2,-3.877900168E-2,-1.555799972E-2,7.546925305E-2
4.495531509E0,5.981099978E-2,-5.863999948E-2,-4.108399898E-2,9.329469549E-2
4.500542896E0,5.256599933E-2,-7.426399738E-2,-8.511299640E-2,1.245895170E-1
4.505554509E0,5.268099904E-2,-9.724800289E-2,-1.169629991E-1,1.609745473E-1
4.510565944E0,4.360099882E-2,-1.107069999E-1,-1.319980025E-1,1.777091995E-1
4.515577328E0,2.308399975E-2,-1.309940070E-1,-1.330589950E-1,1.881408968E-1
4.520588938E0,1.935200021E-2,-1.414349973E-1,-1.272529960E-1,1.912372437E-1
4.525600401E0,8.651999757E-3,-1.446300000E-1,-1.286939979E-1,1.937907095E-1
4.530612005E0,5.065999925E-3,-1.359689981E-1,-1.252280027E-1,1.849196730E-1
4.535623468E0,-9.810000192E-4,-1.179590002E-1,-1.238999963E-1,1.710745369E-1
4.540635095E0,-1.760000014E-4,-1.047839969E-1,-1.177439988E-1,1.576177853E-1
4.545646559E0,-4.164000042E-3,-8.006399870E-2,-1.206770018E-1,1.448810600E-1
4.550658177E0,-1.296699978E-2,-6.029399857E-2,-1.114609987E-1,1.273854920E-1
4.555669641E0,-1.010700036E-2,-4.798499867E-2,-1.186780035E-1,1.284102024E-1
4.560681254E0,-7.548000198E-3,-3.573999926E-2,-1.066880003E-1,1.127681216E-1
4.565692713E0,1.340200007E-2,-9.461999871E-3,-1.015279964E-1,1.028449177E-1
4.570704098E0,3.421999980E-3,2.450000029E-3,-8.677899837E-2,8.688099414E-2
4.575715706E0,1.461999957E-2,1.198600046E-2,-7.445199788E-2,7.681476800E-2
4.580727170E0,9.154999629E-3,2.587400004E-2,-8.554899693E-2,8.984380208E-2
4.585738799E0,1.787599921E-2,1.553199999E-2,-1.082699969E-1,1.108295385E-1
4.590750262E0,1.938600093E-2,-6.682000123E-3,-1.215199977E-1,1.232378838E-1
4.595761861E0,1.848999970E-2,-1.685599983E-2,-1.276769936E-1,1.301054169E-1
4.600773324E0,1.306699961E-2,-3.628899902E-2,-1.246099994E-1,1.304426689E-1
4.605784929E0,1.250400022E-2,-6.032399833E-2,-1.385020018E-1,1.515854191E-1
4.610796315E0,1.895499974E-2,-6.263799965E-2,-1.310729980E-1,1.465023612E-1
4.615807799E0,1.598400064E-2,-8.856000006E-2,-1.431519985E-1,1.690883100E-1
4.620819491E0,-5.452000070E-3,-9.490700066E-2,-1.269900054E-1,1.586301502E-1
4.625830878E0,-5.313999951E-3,-1.057590023E-1,-1.183300018E-1,1.587929296E-1
4.630842253E0,-3.764300048E-2,-1.374969929E-1,-1.103869975E-1,1.802989400E-1
4.635853943E0,-4.809800163E-2,-1.356980056E-1,-1.120480001E-1,1.824338806E-1
4.640865572E0,-6.751400232E-2,-1.405449957E-1,-8.798299730E-2,1.790308469E-1
4.645877036E0,4.616300017E-2,-1.157130003E-1,-3.204309940E-1,3.437972411E-1
4.650888649E0,3.874799982E-2,-1.314720064E-1,-3.686940074E-1,3.933466246E-1
4.655900051E0,8.684000000E-3,-1.657480001E-1,-2.457260042E-1,2.965283807E-1
4.660911510E0,2.146399952E-2,-1.809999943E-1,-1.325750053E-1,2.253837466E-1
4.665923131E0,4.794799909E-2,-2.217579931E-1,-1.232810020E-1,2.582127487E-1
4.670934594E0,4.132900015E-2,-2.596339881E-1,-1.360780001E-1,2.960322890E-1
4.675946208E0,4.205999896E-2,-2.748140097E-1,-7.841599733E-2,2.888613025E-1
4.680957676E0,2.888599969E-2,-2.777859867E-1,-6.647700071E-2,2.870864800E-1
4.685969061E0,-1.872400008E-2,-2.712570131E-1,-6.158500165E-2,2.787896479E-1
4.690980751E0,-7.900600135E-2,-2.509829998E-1,-8.225200325E-2,2.756806241E-1
4.695992166E0,-1.075989977E-1,-2.049880028E-1,-7.826899737E-2,2.443842498E-1
4.701003779E0,-9.158000350E-2,-1.277579963E-1,2.115000039E-3,1.572052031E-1
4.706015243E0,-5.770799890E-2,-3.703400120E-2,3.798799962E-2,7.838889269E-2
4.711026861E0,2.796000103E-3,5.160199851E-2,-5.173000041E-3,5.193595860E-2
4.716038325E0,4.971500114E-2,1.413889974E-1,8.900000248E-4,1.498773566E-1
4.721049938E0,8.124800026E-2,2.062660009E-1,-1.524999971E-3,2.216962478E-1
4.726061325E0,1.070879996E-1,2.344360054E-1,-1.978299953E-2,2.584945789E-1
4.731072784E0,1.087130010E-1,2.289640009E-1,-2.831299976E-2,2.550385388E-1
4.736084386E0,8.905400336E-2,1.949380040E-1,-3.940799832E-2,2.179092271E-1
4.741095849E0,5.334600061E-2,1.399900019E-1,-4.161399975E-2,1.554822221E-1
4.746107463E0,1.837700047E-2,8.318199962E-2,-5.397599936E-2,1.008482410E-1
4.751118931E0,-1.120200008E-2,3.215600178E-2,-3.636100143E-2,4.981581758E-2
4.756130545E0,-1.462899987E-2,-2.481699921E-2,-5.810000002E-3,2.938787483E-2
4.761142008E0,-1.338899974E-2,-7.062099874E-2,6.117799878E-2,9.438929130E-2
4.766153607E0,-1.911300048E-2,-9.379900247E-2,1.197450012E-1,1.533050063E-1
4.771165070E0,-1.995800063E-2,-1.262200028E-1,1.252969950E-1,1.789668904E-1
4.776176689E0,-4.386999831E-2,-1.469549984E-1,9.769900143E-2,1.818390585E-1
4.781188075E0,-4.369499907E-2,-1.538020074E-1,7.064799964E-2,1.748011736E-1
4.786199524E0,-5.728400126E-2,-1.589889973E-1,2.531499974E-2,1.708795110E-1
4.791211216E0,-7.245700061E-2,-1.670289934E-1,-7.499000058E-3,1.822222175E-1
4.796222526E0,-1.819369942E-1,-2.656109929E-1,-6.934899837E-2,3.293319799E-1
4.801234000E0,-1.903519928E-1,-2.647930086E-1,-1.394840032E-1,3.546900135E-1
4.806245616E0,-8.926200122E-2,-1.906480044E-1,-1.249879971E-1,2.448190472E-1
4.811257308E0,-2.111900039E-2,-1.288940012E-1,-9.331300110E-2,1.605210015E-1
4.816268772E0,3.827999905E-2,-9.399899840E-2,-8.739800006E-2,1.339387190E-1
4.821280385E0,9.146600217E-2,-6.233900040E-2,-1.044920012E-1,1.522194431E-1
