"Time (s)","Linear Acceleration x (m/s^2)","Linear Acceleration y (m/s^2)","Linear Acceleration z (m/s^2)","Absolute acceleration (m/s^2)"
4.399303800E-2,1.077850014E-1,-5.820680261E-1,-1.989700086E-2,5.922978002E-1
4.900442000E-2,8.015999570E-3,-6.009969711E-1,1.103790030E-1,6.111015790E-1
5.401586800E-2,-5.760399997E-2,-6.078690290E-1,1.884820014E-1,6.390214724E-1
5.902725400E-2,-1.088180020E-1,-6.003270149E-1,2.417619973E-1,6.562642347E-1
6.403866300E-2,-1.484690011E-1,-5.832170248E-1,2.527990043E-1,6.527575958E-1
6.905004800E-2,-1.839919984E-1,-5.685129762E-1,2.600679994E-1,6.516865994E-1
7.406142600E-2,-2.271060050E-1,-5.514730215E-1,2.266779989E-1,6.380302078E-1
7.907281100E-2,-2.359270006E-1,-5.345349908E-1,1.654440016E-1,6.072568844E-1
8.408419500E-2,-2.602230012E-1,-5.464479923E-1,6.787600368E-2,6.090390550E-1
8.909580400E-2,-2.809759974E-1,-5.513290167E-1,-5.593699962E-2,6.213212886E-1
9.410696000E-2,-3.308590055E-1,-5.490829945E-1,-1.359959990E-1,6.553279546E-1
9.911832300E-2,-6.155660152E-1,-5.156220198E-1,-2.179470062E-1,8.320387515E-1
1.041297080E-1,-1.152853966E0,-4.028719962E-1,-3.182139993E-1,1.261997726E0
1.091410930E-1,-1.286545038E0,-3.183540106E-1,-8.595000207E-2,1.328132077E0
1.141527080E-1,-1.140040040E0,-2.194090039E-1,1.671800017E-2,1.161081864E0
1.191638640E-1,-8.320720196E-1,-1.710200012E-1,-5.268799886E-2,8.510979449E-1
1.241752460E-1,-5.938209891E-1,-2.187200040E-1,-2.381419986E-1,6.761460040E-1
1.291868520E-1,-5.737100244E-1,-2.617349923E-1,-4.158340096E-1,7.553584062E-1
1.341982390E-1,-5.703349710E-1,-3.118959963E-1,-4.792920053E-1,8.076397204E-1
1.392096370E-1,-5.647220016E-1,-3.499990106E-1,-4.645650089E-1,8.106977821E-1
1.442210220E-1,-5.498920083E-1,-4.142949879E-1,-3.762069941E-1,7.845720236E-1
1.492324010E-1,-5.445910096E-1,-4.856190085E-1,-2.299290001E-1,7.650310676E-1
1.542437860E-1,-4.719960093E-1,-5.688890219E-1,-9.684900194E-2,7.455163856E-1
1.592551660E-1,-3.874289989E-1,-6.593779922E-1,7.583000232E-3,7.648124395E-1
1.642665500E-1,-2.866869867E-1,-7.523599863E-1,8.214599639E-2,8.093101643E-1
1.692779340E-1,-1.771000028E-1,-8.622090220E-1,1.579969972E-1,8.942772835E-1
1.742893180E-1,-9.138099849E-2,-9.458299875E-1,2.375569940E-1,9.794785233E-1
1.793007020E-1,-5.307900161E-2,-1.041766047E0,3.152590096E-1,1.089716533E0
1.843120870E-1,-2.657099999E-2,-1.123332977E0,3.902019858E-1,1.189470717E0
1.893234720E-1,-1.891300082E-2,-1.166594982E0,5.058079958E-1,1.271669486E0
1.943349330E-1,1.006999984E-3,-1.214604020E0,6.046609879E-1,1.356789906E0
1.993463200E-1,3.803699836E-2,-1.255377054E0,6.653339863E-1,1.421297884E0
2.043577040E-1,2.278199978E-2,-1.303254962E0,7.429280281E-1,1.500311491E0
2.093690890E-1,1.255599968E-2,-1.341469049E0,7.873169780E-1,1.555495062E0
2.143804590E-1,-1.417499967E-2,-1.367601991E0,8.055570126E-1,1.587280138E0
2.193918440E-1,-3.844999894E-2,-1.374459028E0,8.216480017E-1,1.601786959E0
2.244032430E-1,-4.591099918E-2,-1.395511985E0,8.284080029E-1,1.623521278E0
2.294146270E-1,-4.146600142E-2,-1.430737972E0,7.875139713E-1,1.633679537E0
2.344262410E-1,-3.463799879E-2,-1.480108976E0,6.915689707E-1,1.634071606E0
2.394376370E-1,-5.654500052E-2,-1.555556059E0,5.764039755E-1,1.659877565E0
2.444487910E-1,-6.431200355E-2,-1.652277946E0,4.538190067E-1,1.714674936E0
2.494601740E-1,-7.470499724E-2,-1.763069034E0,3.164030015E-1,1.792792267E0
2.544717840E-1,-8.314699680E-2,-1.883141994E0,1.735129952E-1,1.892945840E0
2.594831710E-1,-2.031699941E-2,-2.019663095E0,6.312099844E-2,2.020751360E0
2.644945560E-1,1.811200008E-2,-2.170232058E0,-1.276050061E-1,2.174055718E0
2.695059400E-1,4.663499817E-2,-2.315711021E0,-2.890410125E-1,2.334145896E0
2.745173250E-1,6.054899842E-2,-2.463277102E0,-4.023199975E-1,2.496650084E0
2.795287140E-1,5.276900157E-2,-2.577042103E0,-4.676530063E-1,2.619662173E0
2.845400990E-1,5.936300009E-2,-2.676151037E0,-5.258759856E-1,2.727976153E0
2.895514740E-1,5.657599866E-2,-2.741465092E0,-5.747510195E-1,2.801637098E0
2.945628580E-1,3.514299914E-2,-2.765808105E0,-6.049159765E-1,2.831404748E0
2.995742420E-1,-1.439299993E-2,-2.763552904E0,-6.165090203E-1,2.831521708E0
3.045857160E-1,-8.462099731E-2,-2.732317924E0,-6.503459811E-1,2.809923815E0
3.095971030E-1,-1.826020032E-1,-2.696034908E0,-6.992670298E-1,2.791222330E0
3.146085120E-1,-3.131900132E-1,-2.642772913E0,-6.988559961E-1,2.751497112E0
3.196198960E-1,-4.429439902E-1,-2.560604095E0,-7.114589810E-1,2.694265502E0
3.246313050E-1,-5.575990081E-1,-2.463907003E0,-6.773160100E-1,2.615437125E0
3.296426900E-1,-6.835860014E-1,-2.367053986E0,-6.035439968E-1,2.536631575E0
3.346540790E-1,-7.996190190E-1,-2.270073891E0,-5.212280154E-1,2.462580900E0
3.396653870E-1,-8.747529984E-1,-2.160978079E0,-3.965519965E-1,2.364798628E0
3.446768460E-1,-9.140449762E-1,-2.051721096E0,-2.819010019E-1,2.263737142E0
3.496882180E-1,-8.889790177E-1,-1.947052956E0,-1.553429961E-1,2.146026643E0
3.546996030E-1,-8.187869787E-1,-1.854122043E0,-1.899000071E-2,2.026953696E0
3.597109870E-1,-6.939780116E-1,-1.815930009E0,1.299909949E-1,1.948359550E0
3.647226100E-1,-5.528749824E-1,-1.801319957E0,2.775219977E-1,1.904584677E0
3.697339960E-1,-3.715879917E-1,-1.824605942E0,4.214169979E-1,1.909150797E0
3.747451500E-1,-2.097290009E-1,-1.892894030E0,5.739039779E-1,1.989070094E0
3.797565330E-1,-2.894699946E-2,-1.996572018E0,7.135229707E-1,2.120436931E0
3.847681530E-1,1.516409963E-1,-2.133204937E0,8.499209881E-1,2.301287462E0
3.897795400E-1,2.986899912E-1,-2.300343990E0,9.568880200E-1,2.509269389E0
3.947909250E-1,4.218089879E-1,-2.464477062E0,1.005607963E0,2.694961482E0
3.998023090E-1,5.304909945E-1,-2.616008043E0,1.058285952E0,2.871391289E0
4.048136940E-1,6.080489755E-1,-2.759752989E0,1.050004005E0,3.014708697E0
4.098250780E-1,7.045850158E-1,-2.895694017E0,1.064512014E0,3.164596296E0
4.148364630E-1,7.866029739E-1,-2.999975920E0,9.290469885E-1,3.237549701E0
4.198478480E-1,8.230370283E-1,-3.089415073E0,8.322780132E-1,3.303719440E0
4.248592320E-1,8.498219848E-1,-3.152126074E0,7.953230143E-1,3.360153998E0
4.298706160E-1,8.357319832E-1,-3.193016052E0,7.554939985E-1,3.385937188E0
4.348820760E-1,7.974590063E-1,-3.202577114E0,7.843319774E-1,3.392287973E0
4.398933710E-1,7.325279713E-1,-3.178442001E0,8.459320068E-1,3.369672350E0
4.449047540E-1,6.647440195E-1,-3.149378061E0,9.258109927E-1,3.349267499E0
4.499161380E-1,6.228200197E-1,-3.081825972E0,1.064924955E0,3.319581488E0
4.549275230E-1,6.042209864E-1,-3.004483938E0,1.107910991E0,3.258753366E0
4.599389850E-1,5.756570101E-1,-2.934024096E0,1.126744032E0,3.195219945E0
4.649503710E-1,5.061399937E-1,-2.870430946E0,1.131091952E0,3.126486929E0
4.699617560E-1,4.172509909E-1,-2.811248064E0,1.113960028E0,3.052559747E0
4.749731400E-1,3.402169943E-1,-2.758853912E0,1.080168962E0,2.982245379E0
4.799845210E-1,2.727740109E-1,-2.749100924E0,1.084833026E0,2.967966348E0
4.849959060E-1,2.294889987E-1,-2.760410070E0,1.087358952E0,2.975714779E0
4.900073040E-1,1.675740033E-1,-2.821420908E0,1.176442981E0,3.061456365E0
4.950186880E-1,3.453600034E-2,-2.913043976E0,1.236984968E0,3.164988112E0
5.000300580E-1,-1.001719981E-1,-3.008879900E0,1.355332971E0,3.301563288E0
5.050414420E-1,-2.341179997E-1,-3.125633001E0,1.450237989E0,3.453633322E0
5.100528270E-1,-3.264620006E-1,-3.217799902E0,1.540873051E0,3.582611255E0
5.150642120E-1,-3.772520125E-1,-3.306888103E0,1.545928955E0,3.669839825E0
5.200755970E-1,-3.936380148E-1,-3.364228010E0,1.532227993E0,3.717620693E0
5.250872120E-1,-3.230949938E-1,-3.389885902E0,1.420614004E0,3.689696594E0
5.300983470E-1,-2.755689919E-1,-3.360076904E0,1.280017972E0,3.606175409E0
5.351097300E-1,-2.201180011E-1,-3.320485115E0,1.157770038E0,3.523422313E0
5.401211150E-1,-1.497199982E-1,-3.223436117E0,1.070199966E0,3.399747704E0
5.451326970E-1,-5.030800030E-2,-3.076220989E0,1.005177021E0,3.236672259E0
5.501440840E-1,6.836699694E-2,-2.869376898E0,1.012755036E0,3.043627867E0
5.551554680E-1,2.349569947E-1,-2.619674921E0,1.052312970E0,2.832889703E0
5.601668530E-1,3.630529940E-1,-2.331805944E0,1.128973961E0,2.616048288E0
5.651782380E-1,4.477750063E-1,-2.053478956E0,1.228804946E0,2.434592343E0
5.701896220E-1,5.057290196E-1,-1.779778957E0,1.275591016E0,2.247333402E0
5.752010070E-1,5.175480247E-1,-1.517706990E0,1.312885046E0,2.072427951E0
5.802123910E-1,5.213590264E-1,-1.279085994E0,1.293162942E0,1.892127535E0
5.852238550E-1,5.289819837E-1,-1.082890034E0,1.183310032E0,1.688992420E0
5.902352420E-1,5.738170147E-1,-9.194999933E-1,9.810220003E-1,1.461899576E0
5.952465490E-1,6.272600293E-1,-8.224380016E-1,7.220849991E-1,1.261453985E0
6.002579130E-1,6.641790271E-1,-7.930859923E-1,4.262300134E-1,1.118834749E0
6.052692980E-1,6.408910155E-1,-8.028180003E-1,1.665319949E-1,1.040668507E0
6.102806720E-1,5.940039754E-1,-8.148339987E-1,6.428000052E-3,1.008383105E0
6.152920570E-1,5.474230051E-1,-8.350629807E-1,-7.097399980E-2,1.001019199E0
6.203034410E-1,4.828819931E-1,-8.503370285E-1,-7.540500164E-2,9.807823385E-1
6.253148360E-1,4.058499932E-1,-8.298169971E-1,7.887700200E-2,9.271095119E-1
6.303262980E-1,3.241150081E-1,-7.662320137E-1,3.661789894E-1,9.089824474E-1
6.353376840E-1,3.189750016E-1,-6.629080176E-1,6.706600189E-1,9.954782531E-1
6.403490740E-1,2.159319967E-1,-5.959590077E-1,7.939850092E-1,1.015975374E0
6.453604580E-1,4.643869996E-1,-6.021659970E-1,1.506281018E0,1.687347528E0
6.503718430E-1,4.986540079E-1,-4.844129980E-1,8.974980116E-1,1.135259641E0
6.553832280E-1,4.591859877E-1,-4.622670114E-1,7.932239771E-1,1.026521719E0
6.603946120E-1,3.877179921E-1,-4.483079910E-1,7.678179741E-1,9.699740912E-1
6.654062400E-1,3.453359902E-1,-4.654619992E-1,8.548439741E-1,1.032797192E0
6.704173960E-1,3.401899934E-1,-5.541449785E-1,9.736790061E-1,1.170835896E0
6.754287780E-1,4.056459963E-1,-6.551669836E-1,1.172309995E0,1.402891006E0
6.804401630E-1,4.579020143E-1,-8.013370037E-1,1.486006975E0,1.749294709E0
6.854515580E-1,5.616109967E-1,-9.009330273E-1,1.829988956E0,2.115643357E0
6.904629420E-1,6.424570084E-1,-9.676529765E-1,2.107271910E0,2.406179169E0
6.954745580E-1,7.095519900E-1,-1.037039042E0,2.196399927E0,2.530432105E0
7.004857130E-1,6.788970232E-1,-1.118535042E0,2.097515106E0,2.472163309E0
7.054973270E-1,5.787209868E-1,-1.171547055E0,1.891770005E0,2.299181210E0
7.105084780E-1,5.063980222E-1,-1.162886024E0,1.597759962E0,2.039995038E0
7.155198600E-1,4.422889948E-1,-1.100211978E0,1.238590956E0,1.714699247E0
7.205314760E-1,3.689329922E-1,-9.984499812E-1,7.439450026E-1,1.298640860E0
7.255428620E-1,3.080739975E-1,-7.548080087E-1,1.438930035E-1,8.278586319E-1
7.305542470E-1,3.269599974E-1,-4.539540112E-1,-4.302940071E-1,7.057832647E-1
7.355656220E-1,3.864069879E-1,-1.009859964E-1,-9.423819780E-1,1.023519577E0
7.405770060E-1,4.486060143E-1,2.720499933E-1,-1.468778968E0,1.559669905E0
7.455883960E-1,4.732809961E-1,6.497219801E-1,-1.925122976E0,2.086200380E0
7.505997800E-1,4.636589885E-1,1.022112012E0,-2.225747108E0,2.492717957E0
7.556111650E-1,3.966900110E-1,1.391648054E0,-2.267685890E0,2.690064417E0
7.606225500E-1,3.347780108E-1,1.756122947E0,-2.096044064E0,2.754894705E0
7.656340090E-1,2.426490039E-1,2.065679073E0,-1.674330950E0,2.670073539E0
7.706453040E-1,9.442000091E-2,2.280404091E0,-1.183280945E0,2.570858174E0
7.756566870E-1,-1.380479932E-1,2.374610901E0,-6.961449981E-1,2.478397070E0
7.806680670E-1,-4.259000123E-1,2.351290941E0,-3.508369923E-1,2.415170078E0
7.856794520E-1,-7.138370275E-1,2.222739935E0,-2.114980072E-1,2.344113378E0
7.906908500E-1,-1.011111021E0,1.993767023E0,-2.063370049E-1,2.245000534E0
7.957023120E-1,-1.320055008E0,1.642953992E0,-1.652980000E-1,2.114040319E0
8.007136990E-1,-1.609974980E0,1.256314039E0,-6.460600346E-2,2.043163806E0
8.057250880E-1,-1.758744955E0,8.586159945E-1,6.297700107E-2,1.958155087E0
8.107364730E-1,-1.812219024E0,5.032430291E-1,2.133779973E-1,1.892860667E0
8.157478580E-1,-1.785280943E0,1.731919944E-1,3.673050106E-1,1.830884071E0
8.207592320E-1,-1.690253019E0,-1.201319993E-1,5.314480066E-1,1.775900884E0
8.257706170E-1,-1.497818947E0,-3.582290113E-1,6.911690235E-1,1.688047464E0
8.307822250E-1,-1.237972975E0,-5.595759749E-1,7.643889785E-1,1.558843439E0
8.357933810E-1,-9.235529900E-1,-6.949189901E-1,7.454079986E-1,1.375316550E0
8.408047640E-1,-5.920240283E-1,-7.568629980E-1,6.493480206E-1,1.159735702E0
8.458161480E-1,-2.578940094E-1,-7.700819969E-1,5.686129928E-1,9.913911123E-1
8.508275330E-1,3.273700178E-2,-7.442460060E-1,4.764820039E-1,8.843126872E-1
8.558389040E-1,2.563520074E-1,-6.794409752E-1,3.771100044E-1,8.182715600E-1
8.608505190E-1,4.643050134E-1,-5.252959728E-1,2.105640024E-1,7.320192645E-1
8.658619060E-1,6.371899843E-1,-3.186990023E-1,-8.390799910E-2,7.173706730E-1
8.708732900E-1,7.863039970E-1,-5.516799912E-2,-4.209969938E-1,8.936195794E-1
8.758846750E-1,9.204030037E-1,2.657069862E-1,-6.792780161E-1,1.174376649E0
8.808960590E-1,1.038615942E0,6.265360117E-1,-8.845170140E-1,1.501213108E0
8.859074440E-1,1.091254950E0,9.463009834E-1,-1.061841965E0,1.792716172E0
8.909188240E-1,1.080355048E0,1.224817038E0,-1.237763047E0,2.049244048E0
8.959302080E-1,1.005702019E0,1.442677021E0,-1.424543023E0,2.263200469E0
9.009416020E-1,8.718150258E-1,1.592535973E0,-1.608010054E0,2.425268768E0
9.059529860E-1,7.407810092E-1,1.717501044E0,-1.735419989E0,2.551518935E0
9.109643700E-1,5.861480236E-1,1.764951944E0,-1.813900948E0,2.597857101E0
9.159757400E-1,3.767029941E-1,1.744513035E0,-1.879251003E0,2.591681926E0
9.209871250E-1,1.216590032E-1,1.680192947E0,-1.895421028E0,2.535837165E0
9.259985340E-1,-9.077399969E-2,1.579355001E0,-1.926730990E0,2.492969003E0
9.310099190E-1,-2.629739940E-1,1.468381047E0,-1.884556055E0,2.403507800E0
9.360213040E-1,-3.830649853E-1,1.385869026E0,-1.687131047E0,2.216705418E0
9.410327040E-1,-4.224399924E-1,1.296218038E0,-1.401069045E0,1.954899286E0
9.460440890E-1,-4.146220088E-1,1.185557961E0,-1.066419959E0,1.647637891E0
9.510554770E-1,-4.097940028E-1,1.042417049E0,-7.136729956E-1,1.328116551E0
9.560668610E-1,-3.196890056E-1,8.284270167E-1,-3.778820038E-1,9.650322229E-1
9.610782550E-1,-2.344740033E-1,5.825309753E-1,-3.430419862E-1,7.155404949E-1
9.660896390E-1,-1.443389952E-1,3.295319974E-1,-5.237569809E-1,6.354104641E-1
9.711010240E-1,-3.713299930E-1,2.389570028E-1,-1.373080015E0,1.442336695E0
9.761124850E-1,-3.815250099E-1,-1.833589971E-1,-5.498999953E-1,6.939537880E-1
9.811237950E-1,-2.195259929E-1,-1.543820053E-1,-1.122656941E0,1.154289424E0
9.861352500E-1,-3.278670013E-1,-2.422630042E-1,-1.386281013E0,1.444978610E0
9.911465590E-1,-5.147209764E-1,-3.120389879E-1,-1.190822005E0,1.334302463E0
9.961579420E-1,-6.806960106E-1,-2.699579895E-1,-9.572259784E-1,1.205199547E0
1.001169321E0,-6.915979981E-1,-1.981160045E-1,-5.353999734E-1,8.967780516E-1
1.006180783E0,-6.156719923E-1,-4.376100004E-2,-2.069510072E-1,6.509959651E-1
1.011192170E0,-4.259510040E-1,1.387889981E-1,4.161100090E-2,4.499201254E-1
1.016203540E0,-2.542259991E-1,3.078869879E-1,6.409899890E-2,4.043932957E-1
1.021214925E0,-7.464499772E-2,4.120930135E-1,-9.218499810E-2,4.288246744E-1
1.026226310E0,4.487499967E-2,5.281869769E-1,-4.580230117E-1,7.005571550E-1
1.031237694E0,1.614830047E-1,6.062309742E-1,-8.527609706E-1,1.058675601E0
1.036249308E0,3.000720143E-1,6.799309850E-1,-1.239825010E0,1.445515622E0
1.041260454E0,4.601120055E-1,7.224810123E-1,-1.677121997E0,1.883194112E0
1.046271837E0,6.365690231E-1,7.933149934E-1,-2.167455912E0,2.394250181E0
1.051283222E0,7.249360085E-1,8.705999851E-1,-2.524585009E0,2.767129563E0
1.056294827E0,8.259559870E-1,1.006544948E0,-2.581506968E0,2.891282457E0
1.061305983E0,1.051651955E0,1.234164000E0,-2.508572102E0,2.986982859E0
1.066317591E0,1.280359983E0,1.531407952E0,-2.509732008E0,3.206756423E0
1.071328978E0,1.327036023E0,1.857360005E0,-2.566241026E0,3.434589320E0
1.076340137E0,9.666870236E-1,2.190376997E0,-2.501339912E0,3.462504375E0
1.081351519E0,2.986850142E-1,2.494663954E0,-2.238413095E0,3.364974616E0
1.086362919E0,-3.816390038E-1,2.789192915E0,-1.928217053E0,3.412223095E0
1.091374534E0,-1.081318021E0,2.999634027E0,-1.960695028E0,3.743177521E0
1.096385929E0,-1.773347974E0,3.106436968E0,-2.407879114E0,4.311913206E0
1.101397083E0,-2.248044014E0,3.152182102E0,-2.925621033E0,4.852753066E0
1.106408701E0,-2.362001896E0,3.114970922E0,-3.370717049E0,5.161766193E0
1.111420088E0,-2.103002071E0,3.025916100E0,-3.625969887E0,5.169762429E0
1.116431473E0,-1.674129963E0,2.823247910E0,-3.669446945E0,4.923238850E0
1.121442857E0,-1.166208982E0,2.546230078E0,-3.406855106E0,4.410214588E0
1.126454242E0,-9.043580294E-1,2.126290083E0,-3.569633007E0,4.252205636E0
1.131465626E0,-4.429570138E-1,1.832028031E0,-3.214423895E0,3.726266040E0
1.136477011E0,5.111299828E-2,1.626171947E0,-2.814011097E0,3.250493223E0
1.141488396E0,4.012860060E-1,1.435518026E0,-2.563623905E0,2.965452746E0
1.146499780E0,7.208669782E-1,1.305956006E0,-2.273794889E0,2.719432568E0
1.151511240E0,9.669820070E-1,1.211431980E0,-2.094981909E0,2.606064244E0
1.156522550E0,1.118711948E0,1.170865059E0,-1.965221047E0,2.546475049E0
1.161534014E0,1.284126043E0,1.085615039E0,-1.748685002E0,2.425992363E0
1.166545324E0,1.303447008E0,9.697570205E-1,-1.574913025E0,2.262687300E0
1.171556716E0,1.296934962E0,9.352959991E-1,-1.288866997E0,2.053776287E0
1.176568177E0,9.846209884E-1,6.518020034E-1,-8.309310079E-1,1.443873499E0
1.181579564E0,5.116879940E-1,1.325120032E-1,-2.563889921E-1,5.874685944E-1
1.186590871E0,1.073729992E-1,-1.956100017E-2,-3.390730023E-1,3.562051299E-1
1.191602331E0,4.334689975E-1,-2.835119963E-1,8.790029883E-1,1.020255202E0
1.196613704E0,4.060600102E-1,-2.187000066E-1,8.009520173E-1,9.242502685E-1
1.201625088E0,5.105000138E-1,-2.376299948E-1,9.665309787E-1,1.118597520E0
1.206636473E0,6.657599658E-2,-3.253270090E-1,1.506520063E-1,3.646451056E-1
1.211647881E0,1.832200028E-2,-1.330080032E-1,-2.677089870E-1,2.994911123E-1
1.216659266E0,-2.269670069E-1,-1.063100025E-1,-7.124850154E-1,7.552818918E-1
1.221670641E0,-3.154090047E-1,-2.154400013E-2,-9.890729785E-1,1.038370040E0
1.226682025E0,-2.161950022E-1,-3.898999887E-3,-9.717630148E-1,9.955294260E-1
1.231693409E0,-5.070000142E-2,2.020000014E-3,-7.681769729E-1,7.698509156E-1
1.236704803E0,1.843180060E-1,1.687619984E-1,-5.363680124E-1,5.917299927E-1
1.241716187E0,1.622740030E-1,2.730129957E-1,-4.849019945E-1,5.796541142E-1
1.246727591E0,4.423400015E-2,2.550770044E-1,-4.840669930E-1,5.489460617E-1
1.251739206E0,-2.040600032E-1,2.249259949E-1,-6.220780015E-1,6.922522864E-1
1.256750352E0,-4.741669893E-1,2.238720059E-1,-8.335080147E-1,9.847276879E-1
1.261761965E0,-8.285599947E-1,1.878699958E-1,-1.055428982E0,1.354893773E0
1.266773121E0,-1.281898975E0,3.902199864E-2,-1.265064955E0,1.801437492E0
1.271784726E0,-1.514904976E0,-3.807400167E-2,-1.338925004E0,2.022154020E0
1.276795882E0,-1.607946038E0,-1.631769985E-1,-1.280462980E0,2.061965722E0
1.281807495E0,-1.150573015E0,7.616800070E-2,-1.207695007E0,1.669774553E0
1.286818882E0,-1.077337980E0,2.835629880E-1,-1.162410975E0,1.610051044E0
1.291830266E0,-9.375699759E-1,3.428849876E-1,-1.160078049E0,1.530486411E0
1.296841636E0,-7.813619971E-1,3.284620047E-1,-1.031057000E0,1.334725589E0
1.301853021E0,-6.201909781E-1,3.310520053E-1,-8.807389736E-1,1.126913226E0
1.306864396E0,-4.826369882E-1,2.657819986E-1,-7.626299858E-1,9.408416596E-1
1.311875550E0,-5.169579983E-1,1.808270067E-1,-6.620320082E-1,8.592033276E-1
1.316887149E0,-4.909679890E-1,2.572160065E-1,-6.517649889E-1,8.555742171E-1
1.321898536E0,-3.084090054E-1,4.470779896E-1,-7.629680037E-1,9.365441891E-1
1.326909930E0,-8.849400282E-2,7.266669869E-1,-7.215030193E-1,1.027833987E0
1.331921314E0,8.328200132E-2,2.418499999E-2,-2.382909954E-1,2.535811595E-1
1.336932709E0,-4.107590020E-1,-6.804730296E-1,2.593800128E-1,8.360888067E-1
1.341944094E0,-4.628550112E-1,-6.280940175E-1,5.788419843E-1,9.714910700E-1
1.346955478E0,-3.747969866E-1,-4.827019870E-1,6.240090132E-1,8.734192796E-1
1.351966853E0,-2.018190026E-1,-4.208219945E-1,4.016959965E-1,6.157773417E-1
1.356978237E0,-8.623000234E-3,-2.475879937E-1,1.590549946E-1,2.944022114E-1
1.361989621E0,6.357900053E-2,1.766149998E-1,-1.921110004E-1,2.685922261E-1
1.367001006E0,-1.396249980E-1,3.308099881E-2,-4.589850008E-1,4.808915923E-1
1.372012395E0,-4.089320004E-1,3.664999828E-2,-2.954680026E-1,5.058358863E-1
1.377023780E0,-3.410489857E-1,1.479119956E-1,-4.362669885E-1,5.731677367E-1
1.382035264E0,-2.768140137E-1,8.535599709E-2,-4.949359894E-1,5.734747405E-1
1.387046651E0,-3.066810071E-1,1.526030004E-1,-6.296920180E-1,7.168353740E-1
1.392058036E0,-2.670460045E-1,1.378639936E-1,-7.862390280E-1,8.417195842E-1
1.397069420E0,-3.638800085E-1,1.186800003E-2,-6.312130094E-1,7.286833147E-1
1.402080805E0,-3.752149940E-1,2.502360046E-1,-3.327879906E-1,5.604928156E-1
1.407092099E0,-2.870019972E-1,2.763690054E-1,-2.025070041E-1,4.469441356E-1
1.412103481E0,5.887499824E-2,3.161379993E-1,-1.364320070E-1,3.493181824E-1
1.417114866E0,9.530799836E-2,1.070759967E-1,2.714899927E-2,1.458970589E-1
1.422126251E0,8.874899894E-2,-1.702719927E-1,1.534740031E-1,2.458113218E-1
1.427137702E0,1.445830017E-1,-4.830949903E-1,1.805839986E-1,5.356263572E-1
1.432149089E0,2.537089884E-1,-7.254179716E-1,1.167820022E-1,7.773271643E-1
1.437160473E0,4.189850092E-1,-8.734539747E-1,-6.974000018E-3,9.687718620E-1
1.442171853E0,5.943549871E-1,-9.579370022E-1,-4.542899877E-2,1.128257482E0
1.447183238E0,8.233940005E-1,-9.351980090E-1,-3.508500010E-2,1.246516728E0
1.452194622E0,9.931100011E-1,-8.812729716E-1,-9.232199937E-2,1.330951869E0
1.457206007E0,1.072296023E0,-8.676760197E-1,-1.400399953E-1,1.386467323E0
1.462217387E0,1.102429032E0,-8.633390069E-1,-1.759179980E-1,1.411258713E0
1.467228771E0,1.151579022E0,-8.181920052E-1,-3.687100112E-2,1.413128399E0
1.472240405E0,1.172986031E0,-7.266770005E-1,4.378399998E-2,1.380533495E0
1.477251560E0,1.095337987E0,-6.501749754E-1,9.153299779E-2,1.277055635E0
1.482262943E0,9.217810035E-1,-5.547590256E-1,9.303899854E-2,1.079858347E0
1.487274577E0,6.968939900E-1,-4.519309998E-1,4.213400185E-2,8.316718920E-1
1.492285733E0,5.079150200E-1,-3.418709934E-1,3.063000040E-3,6.122604230E-1
1.497297121E0,3.677859902E-1,-2.625730038E-1,-3.091800027E-2,4.529536838E-1
1.502308506E0,2.705659866E-1,-2.307530046E-1,-3.592300043E-2,3.574120370E-1
1.507319890E0,1.804029942E-1,-2.373100072E-1,1.593700051E-2,2.985218046E-1
1.512331251E0,8.377800137E-2,-2.855820060E-1,-1.848799922E-2,2.981906131E-1
1.517342635E0,-1.404600032E-2,-3.129760027E-1,-9.762199968E-2,3.281483250E-1
1.522354020E0,1.049400028E-2,-1.605899930E-1,-1.694680005E-1,2.337063822E-1
1.527365624E0,4.026899859E-2,1.246500015E-2,-1.597390026E-1,1.652074981E-1
1.532377011E0,3.988299891E-2,1.242979988E-1,-8.625199646E-2,1.564610271E-1
1.537388396E0,2.125800028E-2,1.841579974E-1,3.822699934E-2,1.892812036E-1
1.542399771E0,4.495799914E-2,2.225189954E-1,2.407210022E-1,3.308814378E-1
1.547411156E0,4.675500095E-2,2.572410107E-1,1.741629988E-1,3.141523800E-1
1.552422517E0,-2.127999999E-2,1.868019998E-1,4.046500102E-2,1.923154748E-1
1.557433901E0,-2.284600027E-2,1.836789995E-1,5.970299989E-2,1.944848652E-1
1.562445286E0,-1.294199973E-1,1.272950023E-1,1.848050058E-1,2.590491141E-1
1.567456680E0,-2.843520045E-1,5.462799966E-2,2.460139990E-1,3.799515344E-1
1.572468064E0,-4.835979939E-1,8.061000146E-3,1.732250005E-1,5.137498420E-1
1.577479433E0,-5.890640020E-1,-2.669299953E-2,9.317699820E-2,5.969848136E-1
1.582490817E0,-6.453220248E-1,1.037800014E-1,-1.083849967E-1,6.625391399E-1
1.587502202E0,-4.514499903E-1,1.402840018E-1,-2.042469978E-1,5.149791559E-1
1.592513578E0,7.824499905E-2,-1.310199965E-2,8.688309789E-1,8.724455353E-1
1.597524963E0,1.768410057E-1,3.820970058E-1,-1.441420019E-1,4.450255946E-1
1.602536357E0,1.316817045E0,4.813829958E-1,6.281530261E-1,1.536331001E0
1.607547742E0,2.382695913E0,7.553319931E-1,1.253795028E0,2.796384846E0
1.612559142E0,4.435897827E0,3.809335947E0,-5.729039907E-1,5.875070116E0
1.617570527E0,-1.891322017E0,9.902750254E-1,-4.666654110E0,5.131803209E0
1.622581911E0,-1.528705001E0,-6.829590201E-1,-1.153941989E0,2.033458659E0
1.627593295E0,-1.169356942E0,-1.209787011E0,-1.100670025E-1,1.686147982E0
1.632604756E0,-7.025439739E-1,-1.339560032E0,-4.057509899E-1,1.566085240E0
1.637616065E0,7.654970288E-1,-2.594340146E-1,-6.732770205E-1,1.051947554E0
1.642627466E0,1.055426955E0,1.049150005E-1,-7.394729853E-1,1.292963074E0
1.647638850E0,8.923950195E-1,2.091210037E-1,-5.918419957E-1,1.091044185E0
1.652650312E0,6.093580127E-1,2.520200014E-1,-4.637799859E-1,8.061781094E-1
1.657661609E0,1.718440056E-1,3.022499979E-1,-2.873860002E-1,4.510832922E-1
1.662673068E0,4.382999986E-2,4.082019925E-1,-1.349949986E-1,4.321730964E-1
1.667684435E0,-5.120100081E-2,4.981530011E-1,-2.583740056E-1,5.635025126E-1
1.672695743E0,-2.811479867E-1,5.607190132E-1,-2.002030015E-1,6.584308954E-1
1.677707111E0,-3.240439892E-1,6.307650208E-1,1.360899955E-2,7.092631552E-1
1.682718573E0,-2.737649977E-1,6.714209914E-1,1.041309983E-1,7.325276012E-1
1.687729959E0,-1.024179980E-1,6.780480146E-1,2.242520005E-1,7.214759290E-1
1.692741257E0,1.261530071E-1,6.168419719E-1,4.203740060E-1,7.570488124E-1
1.697752717E0,3.033629954E-1,5.467699766E-1,4.486300051E-1,7.695813120E-1
1.702764108E0,5.214329958E-1,5.282899737E-1,3.994799852E-1,8.429513177E-1
1.707775493E0,5.698980093E-1,5.110960007E-1,3.264110088E-1,8.321940937E-1
1.712786902E0,5.952399969E-1,5.700600147E-1,1.436060071E-1,8.366013146E-1
1.717798286E0,8.219779730E-1,6.890450120E-1,-1.331350058E-1,1.080812540E0
1.722809671E0,7.161750197E-1,7.233269811E-1,-3.333629966E-1,1.071092651E0
1.727821064E0,4.914849997E-1,7.243729830E-1,-3.910619915E-1,9.587508563E-1
1.732832448E0,1.766660064E-1,6.861670017E-1,-2.695170045E-1,7.580735108E-1
1.737843832E0,-1.906259954E-1,6.843190193E-1,-1.285499986E-2,7.104900009E-1
1.742855236E0,-5.317720175E-1,6.969590187E-1,3.291260004E-1,9.364065765E-1
1.747866621E0,-7.403370142E-1,7.077170014E-1,6.748970151E-1,1.226559509E0
1.752878015E0,-8.947119713E-1,6.719549894E-1,9.332960248E-1,1.457077379E0
1.757889400E0,-9.640859962E-1,5.979629755E-1,1.040845037E0,1.539603819E0
1.762900771E0,-9.072449803E-1,4.466600120E-1,9.055309892E-1,1.357418503E0
1.767912156E0,-7.094780207E-1,2.471610010E-1,7.010930181E-1,1.027608409E0
1.772923541E0,-3.867369890E-1,-1.467300020E-2,4.714559913E-1,6.099602834E-1
1.777934931E0,1.220999984E-3,-3.010500073E-1,3.363159895E-1,4.513768299E-1
1.782946315E0,2.573069930E-1,-5.839430094E-1,2.980200052E-1,7.042813716E-1
1.787957699E0,5.267120004E-1,-8.153719902E-1,2.706820071E-1,1.007732982E0
1.792969092E0,7.419660091E-1,-9.799140096E-1,6.430599838E-2,1.230804731E0
1.797980476E0,8.633009791E-1,-1.087077975E0,-1.950549930E-1,1.401810813E0
1.802991875E0,9.101949930E-1,-1.111428976E0,-3.604660034E-1,1.481102641E0
1.808003490E0,8.412839770E-1,-1.053514957E0,-5.003939867E-1,1.438070456E0
1.813014877E0,7.181320190E-1,-9.122520089E-1,-4.636240005E-1,1.250145807E0
1.818026253E0,5.655459762E-1,-7.224090099E-1,-2.049829960E-1,9.400718363E-1
1.823037637E0,4.169160128E-1,-5.181170106E-1,2.037979960E-1,6.955557645E-1
1.828049036E0,3.626919985E-1,-2.994099855E-1,7.328739762E-1,8.708019811E-1
1.833060420E0,2.981500030E-1,-1.016980037E-1,1.258543968E0,1.297369966E0
1.838071805E0,1.470659971E-1,3.277200088E-2,1.660990953E0,1.667810948E0
1.843083190E0,-1.830199920E-2,1.294959933E-1,1.723677993E0,1.728632407E0
1.848094574E0,-1.765680015E-1,2.228109986E-1,1.525974989E0,1.552230868E0
1.853105968E0,-2.117100060E-1,1.787759960E-1,1.337270021E0,1.365676790E0
1.858117352E0,-1.916960031E-1,2.986379862E-1,1.231480002E0,1.281590809E0
1.863128736E0,4.539949894E-1,4.353440106E-1,1.260189056E0,1.408443224E0
1.868140126E0,-5.573949814E-1,-3.160780072E-1,1.442854047E0,1.578740724E0
1.873151511E0,-1.369470954E0,-7.892460227E-1,1.503937006E0,2.181785163E0
1.878162905E0,-1.664664030E0,-1.080086946E0,1.675336003E0,2.597006906E0
1.883174290E0,-1.697518945E0,-1.210103989E0,1.625916958E0,2.643771583E0
1.888185690E0,-1.645063996E0,-1.265436053E0,1.513344049E0,2.568613277E0
1.893197075E0,-1.607782960E0,-1.214956045E0,1.323182940E0,2.410787699E0
1.898208464E0,-1.511425972E0,-1.046684980E0,1.127128005E0,2.156472920E0
1.903219848E0,-1.287616014E0,-8.464769721E-1,1.124637008E0,1.907691449E0
1.908231232E0,-1.020094991E0,-6.321009994E-1,1.277537942E0,1.752783117E0
1.913242602E0,-6.445829868E-1,-4.965330064E-1,1.314839005E0,1.546232151E0
1.918254063E0,-2.936150134E-1,-4.449310005E-1,1.115020037E0,1.235897671E0
1.923265362E0,-6.138699874E-2,-4.325889945E-1,8.110420108E-1,9.212441289E-1
1.928276744E0,-6.489600241E-2,-4.749180079E-1,5.526000261E-1,7.315226546E-1
1.933288129E0,-1.651339978E-1,-5.817720294E-1,4.547420144E-1,7.566493449E-1
1.938299500E0,-2.340379953E-1,-7.051510215E-1,4.384709895E-1,8.627100063E-1
1.943310884E0,-2.864589989E-1,-8.261650205E-1,3.276109993E-1,9.337753295E-1
1.948322269E0,-3.391790092E-1,-9.356669784E-1,1.042789966E-1,1.000694361E0
1.953333654E0,-5.065289736E-1,-1.049612045E0,-1.783380061E-1,1.179008690E0
1.958345029E0,-5.225570202E-1,-1.220924020E0,-7.132700086E-2,1.329965730E0
1.963356490E0,-5.260170102E-1,-1.258172035E0,-2.972500026E-2,1.364028717E0
1.968367876E0,-4.662030041E-1,-1.273818970E0,-6.158100069E-2,1.357848382E0
1.973379271E0,-3.163450062E-1,-1.282206059E0,-3.839499876E-2,1.321211836E0
1.978390656E0,-2.387550026E-1,-1.245062947E0,3.564999904E-3,1.267753290E0
1.983402025E0,-2.501299977E-1,-1.195893049E0,1.958930045E-1,1.237375962E0
1.988413410E0,-1.740099937E-1,-1.038396955E0,5.867959857E-1,1.205353575E0
1.993424780E0,-2.340600081E-2,-8.166000247E-1,9.014160037E-1,1.216525484E0
1.998436164E0,2.668620050E-1,-5.478839874E-1,9.389619827E-1,1.119393496E0
2.003447548E0,5.838720202E-1,-2.447730005E-1,8.543789983E-1,1.063383200E0
2.008458927E0,8.734139800E-1,3.203999996E-2,6.184650064E-1,1.070690201E0
2.013470312E0,8.847169876E-1,2.197809964E-1,4.765720069E-1,1.028663556E0
2.018481697E0,8.619430065E-1,3.211440146E-1,4.093729854E-1,1.006809548E0
2.023493082E0,9.894859791E-1,3.720479906E-1,2.475190014E-1,1.085710765E0
2.028504467E0,1.039405942E0,3.268400133E-1,9.792800248E-2,1.093973949E0
2.033515852E0,8.600519896E-1,2.278140038E-1,-3.308099881E-2,8.903274665E-1
2.038527237E0,4.975199997E-1,9.418600053E-2,-4.242999945E-3,5.063745214E-1
2.043538632E0,1.060940027E-1,-3.253899887E-2,2.009650022E-1,2.295684124E-1
2.048550016E0,-1.968349963E-1,-1.520259976E-1,4.082489908E-1,4.780409587E-1
2.053561424E0,-4.625929892E-1,-2.675420046E-1,4.412109852E-1,6.929921582E-1
2.058572808E0,-7.411329746E-1,-3.655050099E-1,3.656849861E-1,9.036578486E-1
2.063584192E0,-1.060086966E0,-4.484170079E-1,2.988919914E-1,1.189200828E0
2.068595567E0,-1.272336960E0,-4.656240046E-1,2.364950031E-1,1.375346116E0
2.073606952E0,-1.304527998E0,-3.661279976E-1,1.973039955E-1,1.369223092E0
2.078618318E0,-1.199044943E0,-1.785220057E-1,1.155610010E-1,1.217757458E0
2.083629703E0,-1.010759950E0,6.772000343E-2,-9.837900102E-2,1.017791778E0
2.088641065E0,-5.280730128E-1,3.982279897E-1,-5.367410183E-1,8.517849255E-1
2.093652450E0,-8.391200006E-2,6.966660023E-1,-8.531659842E-1,1.104661459E0
2.098663835E0,3.536849916E-1,9.261130095E-1,-9.988809824E-1,1.407317163E0
2.103675224E0,8.428999782E-1,1.158226967E0,-1.006548047E0,1.750745284E0
2.108686608E0,1.320965052E0,1.357262969E0,-9.319379926E-1,2.110833924E0
2.113698001E0,1.723217010E0,1.480131984E0,-7.940070033E-1,2.406390383E0
2.118709385E0,1.982632995E0,1.507590055E0,-6.018639803E-1,2.562401533E0
2.123720770E0,2.074965954E0,1.453870058E0,-3.955529928E-1,2.564309659E0
2.128732160E0,2.021477938E0,1.357187033E0,-2.153480053E-1,2.444320858E0
2.133743545E0,1.864923954E0,1.234163046E0,-1.013669968E-1,2.238610070E0
2.138754940E0,1.643311977E0,1.108708024E0,-3.672099859E-2,1.982689126E0
2.143766325E0,1.370857954E0,9.305719733E-1,5.037400126E-2,1.657634841E0
2.148777729E0,1.013973951E0,7.328730226E-1,1.469279975E-1,1.259695946E0
2.153789113E0,6.396690011E-1,4.799639881E-1,1.962170005E-1,8.234336477E-1
2.158800487E0,2.302519977E-1,2.361920029E-1,2.369689941E-1,4.061489245E-1
2.163811871E0,-2.243400067E-1,3.800100088E-2,3.840819895E-1,4.464207537E-1
2.168823255E0,-7.131310105E-1,-1.165969968E-1,6.122339964E-1,9.470908954E-1
2.173834654E0,-1.167706013E0,-1.892060041E-1,8.693699837E-1,1.468039650E0
2.178846039E0,-1.472733974E0,-2.284650058E-1,9.923869967E-1,1.790523267E0
2.183857429E0,-1.606338024E0,-2.834379971E-1,9.004129767E-1,1.863170007E0
2.188869044E0,-1.551959991E0,-3.051100075E-1,6.246539950E-1,1.700548307E0
2.193880430E0,-1.361332059E0,-3.800649941E-1,2.529270053E-1,1.435843461E0
2.198891834E0,-1.061972976E0,-4.675210118E-1,-1.216439977E-1,1.166687516E0
2.203902988E0,-7.227110267E-1,-5.573099852E-1,-4.388689995E-1,1.012675489E0
2.208914361E0,-3.638350070E-1,-6.173160076E-1,-6.469699740E-1,9.654144772E-1
2.213925746E0,-2.314300090E-2,-6.229439974E-1,-7.817850113E-1,9.998913072E-1
2.218937131E0,2.723250091E-1,-5.761749744E-1,-8.688449860E-1,1.077511077E0
2.223948515E0,5.335140228E-1,-4.871979952E-1,-1.016476989E0,1.247086432E0
2.228960131E0,7.778019905E-1,-3.919270039E-1,-1.188694954E0,1.473627635E0
2.233971512E0,9.779409766E-1,-2.968330085E-1,-1.308827043E0,1.660574183E0
2.238982897E0,1.097990990E0,-2.030390054E-1,-1.287896037E0,1.704548402E0
2.243994277E0,1.056714058E0,-1.235779971E-1,-1.090427995E0,1.523466223E0
2.249005661E0,8.702160120E-1,-3.356999904E-2,-7.348070145E-1,1.139449078E0
2.254017046E0,6.444410086E-1,1.463699993E-2,-3.203339875E-1,7.198140863E-1
2.259028425E0,3.846220076E-1,1.320900023E-2,2.828600071E-2,3.858868542E-1
2.264039810E0,1.354690045E-1,-1.157500036E-2,3.666349947E-1,3.910333121E-1
2.269051214E0,-1.499560028E-1,-8.208499849E-2,6.041499972E-1,6.278709811E-1
2.274062598E0,-3.661699891E-1,-1.820929945E-1,7.504079938E-1,8.546054509E-1
2.279074006E0,-4.827049971E-1,-2.834689915E-1,8.104000092E-1,9.849400785E-1
2.284085390E0,-4.976100028E-1,-3.635129929E-1,7.333549857E-1,9.578971479E-1
2.289096774E0,-4.206750095E-1,-4.517099857E-1,5.625169873E-1,8.351255809E-1
2.294108159E0,-2.775230110E-1,-5.345810056E-1,3.028649986E-1,6.741832692E-1
2.299119544E0,-1.093690023E-1,-6.237819791E-1,8.017099649E-2,6.383517250E-1
2.304130929E0,4.173599929E-2,-7.043690085E-1,-7.641600072E-2,7.097302297E-1
2.309142314E0,1.905090064E-1,-7.812449932E-1,-2.408930063E-1,8.394443766E-1
2.314153709E0,2.632380128E-1,-8.468289971E-1,-3.526900113E-1,9.543604381E-1
2.319165094E0,2.557789981E-1,-8.553739786E-1,-3.988060057E-1,9.778209291E-1
2.324176484E0,2.148279995E-1,-8.397020102E-1,-3.669759929E-1,9.412342506E-1
2.329187868E0,2.524099946E-1,-8.208789825E-1,-3.058120012E-1,9.116326505E-1
2.334199256E0,3.774369955E-1,-8.464679718E-1,-2.537420094E-1,9.609119211E-1
2.339210640E0,4.876550138E-1,-8.873639703E-1,-1.759340018E-1,1.027703752E0
2.344222039E0,5.881109834E-1,-9.503650069E-1,-7.331500202E-2,1.120019314E0
2.349233424E0,6.510919929E-1,-1.000305057E0,-2.777099982E-2,1.193860217E0
2.354244794E0,6.753090024E-1,-9.879230261E-1,-3.930699825E-2,1.197321675E0
2.359256179E0,6.547989845E-1,-9.191520214E-1,-1.220249981E-1,1.135117725E0
2.364267574E0,6.234319806E-1,-8.321089745E-1,-1.832129955E-1,1.055765022E0
2.369278959E0,5.214499831E-1,-6.860269904E-1,-2.045779973E-1,8.856609247E-1
2.374290320E0,3.511129916E-1,-5.184910297E-1,-1.405770034E-1,6.417750187E-1
2.379301704E0,1.584099978E-1,-3.105159998E-1,-6.757300347E-2,3.550774906E-1
2.384313088E0,-3.081800044E-2,-9.119799733E-2,-2.761399932E-2,1.001466766E-1
2.389324472E0,-2.262430042E-1,1.029819995E-1,-5.758500099E-2,2.551611677E-1
2.394335856E0,-5.069069862E-1,2.579900026E-1,-5.825800076E-2,5.717582783E-1
2.399347226E0,-7.359409928E-1,4.042930007E-1,-1.377319992E-1,8.509007456E-1
2.404358611E0,-6.844059825E-1,5.946320295E-1,-2.610920072E-1,9.434870617E-1
2.409369996E0,-8.082950115E-1,6.517890096E-1,-1.931560040E-1,1.056162384E0
2.414381377E0,-8.747090101E-1,6.557379961E-1,-5.789700150E-2,1.094742086E0
2.419392762E0,-7.781109810E-1,6.094179749E-1,9.652499855E-2,9.930579249E-1
2.424404151E0,-6.393089890E-1,4.789089859E-1,1.947910041E-1,8.222003013E-1
2.429415536E0,-4.924879968E-1,2.826609910E-1,2.075310051E-1,6.045748762E-1
2.434426995E0,-3.173559904E-1,1.353610009E-1,2.310740054E-1,4.152500706E-1
2.439438373E0,-1.427640021E-1,2.731500007E-2,2.657040060E-1,3.028634813E-1
2.444449681E0,1.155999955E-3,-3.922099993E-2,3.139880002E-1,3.164302252E-1
2.449461140E0,1.295350045E-1,-5.188399926E-2,4.180319905E-1,4.407062648E-1
2.454472445E0,1.853370070E-1,-7.981599867E-2,5.386540294E-1,5.752117551E-1
2.459483828E0,1.802680045E-1,-1.280310005E-1,6.354020238E-1,6.727735298E-1
2.464495294E0,1.254850030E-1,-1.675159931E-1,7.721170187E-1,7.999829901E-1
2.469506604E0,8.036199957E-2,-2.446430027E-1,1.027318954E0,1.059099846E0
2.474518000E0,7.004199922E-2,-2.771120071E-1,1.428282976E0,1.456601938E0
2.479529385E0,6.075600162E-2,-2.821139991E-1,1.863837957E0,1.886046535E0
2.484540770E0,-1.274739951E-1,-3.191190064E-1,2.167778015E0,2.194845799E0
2.489552154E0,2.628250122E-1,-4.031800106E-2,2.239218950E0,2.254951005E0
2.494563539E0,2.390419990E-1,2.005880028E-1,2.089639902E0,2.112811289E0
2.499574915E0,1.045309976E-1,4.879859984E-1,1.837504029E0,1.904068833E0
2.504586300E0,1.934600063E-2,6.957269907E-1,1.625121951E0,1.767889043E0
2.509597761E0,-1.123600006E-1,7.260940075E-1,1.679072976E0,1.832791133E0
2.514609146E0,-2.856099904E-1,5.240529776E-1,1.728929043E0,1.829043527E0
2.519620531E0,-5.175330043E-1,2.017980069E-1,1.794397950E0,1.878410724E0
2.524631825E0,-6.244680285E-1,-1.174219996E-1,1.784065008E0,1.893841651E0
2.529643284E0,-7.516229749E-1,-3.647849858E-1,1.948964953E0,2.120488050E0
2.534654666E0,-7.796260118E-1,-5.345849991E-1,2.060195923E0,2.266716806E0
2.539665974E0,-6.571549773E-1,-6.490079761E-1,1.927538991E0,2.137398086E0
2.544677356E0,-4.179730117E-1,-7.100600004E-1,1.444182038E0,1.662693117E0
2.549688837E0,-1.628109962E-1,-6.722249985E-1,6.590399742E-1,9.553677599E-1
2.554700146E0,9.370300174E-2,-5.154870152E-1,-3.179819882E-1,6.128781773E-1
2.559711606E0,3.584229946E-1,-2.871370018E-1,-1.401590943E0,1.474914192E0
2.564722916E0,6.015920043E-1,-2.778300084E-2,-2.394067049E0,2.468651832E0
2.569734298E0,6.954749823E-1,2.372840047E-1,-3.116411924E0,3.201876392E0
2.574745683E0,8.361949921E-1,5.113540292E-1,-3.580755949E0,3.712481404E0
2.579757092E0,9.136739969E-1,7.022960186E-1,-3.856245041E0,4.024754115E0
2.584768476E0,9.235820174E-1,9.650539756E-1,-3.806207895E0,4.033801118E0
2.589779871E0,8.489469886E-1,1.159600973E0,-3.389322996E0,3.681425781E0
2.594791256E0,7.376099825E-1,1.240710974E0,-2.660712004E0,3.027015126E0
2.599802641E0,5.543360114E-1,1.212306976E0,-1.902359009E0,2.322917652E0
2.604814031E0,5.071190000E-1,1.059880972E0,-9.063479900E-1,1.483908364E0
2.609825491E0,1.744250059E-1,8.153200150E-1,-3.873380125E-1,9.193484352E-1
2.614836878E0,1.071560010E-1,3.782269955E-1,2.609699965E-1,4.718510440E-1
2.619848267E0,1.143900007E-1,1.364600006E-2,4.385800064E-1,4.534575036E-1
2.624859651E0,-1.101379991E-1,-3.863080144E-1,4.013479948E-1,5.678419443E-1
2.629871036E0,-3.597959876E-1,-7.941870093E-1,2.453079969E-1,9.057384677E-1
2.634882406E0,-5.114240050E-1,-1.133388042E0,6.817600131E-2,1.245299536E0
2.639893791E0,-5.877159834E-1,-1.382390976E0,-1.142890006E-1,1.506478298E0
2.644905176E0,-6.552429795E-1,-1.452577949E0,-3.262969851E-1,1.626590232E0
2.649916560E0,-8.887689710E-1,-1.587988019E0,-6.420930028E-1,1.929740826E0
2.654927944E0,-7.018730044E-1,-1.723989964E0,-4.946329892E-1,1.925987773E0
2.659939328E0,-6.795439720E-1,-1.681249976E0,-7.572669983E-1,1.965155159E0
2.664950712E0,-7.112979889E-1,-1.553061008E0,-9.802479744E-1,1.969474401E0
2.669962068E0,-6.441490054E-1,-1.291604996E0,-1.352509022E0,1.977991926E0
2.674973453E0,-4.759019911E-1,-9.828979969E-1,-1.742676973E0,2.056573415E0
2.679984838E0,-2.976300120E-1,-6.937720180E-1,-2.079308987E0,2.212109649E0
2.684996132E0,-1.355729997E-1,-3.761529922E-1,-2.283925056E0,2.318660125E0
2.690007514E0,7.955099642E-2,-1.432159990E-1,-2.233355999E0,2.239356649E0
2.695018966E0,2.825869918E-1,4.911199957E-2,-2.071321964E0,2.091086339E0
2.700030276E0,4.555630088E-1,1.798229963E-1,-1.866461992E0,1.929651350E0
2.705041658E0,5.294460058E-1,2.150799930E-1,-1.680974960E0,1.775457489E0
2.710053053E0,5.553619862E-1,1.708479971E-1,-1.561254978E0,1.665873069E0
2.715064438E0,4.925369918E-1,8.751100302E-2,-1.456946969E0,1.540436735E0
2.720075822E0,3.644689918E-1,1.414000057E-3,-1.293159008E0,1.343540050E0
2.725087207E0,2.405299991E-1,-7.470099628E-2,-1.057693005E0,1.087266946E0
2.730098611E0,1.602140069E-1,-1.314170063E-1,-8.219400048E-1,8.476581440E-1
2.735109996E0,1.521700025E-1,-1.985059977E-1,-6.810150146E-1,7.254941702E-1
2.740121381E0,2.024459988E-1,-2.743110061E-1,-6.159690022E-1,7.040232398E-1
2.745132756E0,2.604199946E-1,-3.620490134E-1,-6.246470213E-1,7.675167509E-1
2.750144141E0,3.141390085E-1,-3.980450034E-1,-6.950449944E-1,8.603549765E-1
2.755155507E0,3.707999885E-1,-3.749830127E-1,-7.389169931E-1,9.078013076E-1
2.760166966E0,4.142079949E-1,-3.018760085E-1,-7.147110105E-1,8.794937271E-1
2.765178353E0,4.101980031E-1,-1.969780028E-1,-5.844630003E-1,7.407156904E-1
2.770189660E0,3.276709914E-1,-8.170899749E-2,-4.184359908E-1,5.377111839E-1
2.775201033E0,1.873349994E-1,3.161999956E-2,-2.567749918E-1,3.194176307E-1
2.780212495E0,3.696500137E-2,1.400489956E-1,-1.505949944E-1,2.089473255E-1
2.785223857E0,-6.745699793E-2,2.599169910E-1,-1.031970009E-1,2.876750072E-1
2.790235242E0,-1.106820032E-1,3.645209968E-1,-1.251299977E-1,4.009782778E-1
2.795246550E0,-1.291050017E-1,4.327490032E-1,-1.360419989E-1,4.716431137E-1
2.800258019E0,-1.396179944E-1,4.772599936E-1,-1.019280031E-1,5.076018160E-1
2.805269329E0,-1.401199996E-1,5.014470220E-1,2.944199927E-2,5.214878344E-1
2.810280788E0,-1.032499969E-1,5.297110081E-1,2.090580016E-1,5.787569110E-1
2.815292189E0,-6.762299687E-2,5.642120242E-1,3.896819949E-1,6.890283994E-1
2.820303497E0,-5.914000049E-2,5.808429718E-1,5.692880154E-1,8.154538258E-1
2.825314966E0,-1.052979976E-1,5.934020281E-1,7.133160233E-1,9.338272776E-1
2.830326353E0,-2.280440032E-1,6.438300014E-1,7.600929737E-1,1.021891612E0
2.835337737E0,-3.927080035E-1,7.336990237E-1,7.190319896E-1,1.099791269E0
2.840349069E0,-5.422750115E-1,8.442990184E-1,6.637790203E-1,1.203123272E0
2.845360452E0,-6.011599898E-1,9.621109962E-1,5.800139904E-1,1.274153496E0
2.850371913E0,-5.879259706E-1,1.051444054E0,4.191470146E-1,1.275490402E0
2.855383228E0,-5.643810034E-1,1.102838039E0,2.357970029E-1,1.261101853E0
2.860394611E0,-5.544610023E-1,1.080418944E0,3.227299824E-2,1.214814243E0
2.865406086E0,-5.087879896E-1,9.822199941E-1,-8.026400208E-2,1.109082344E0
2.870417396E0,-4.618420005E-1,8.297309875E-1,-8.908300102E-2,9.537753017E-1
2.875428779E0,-4.370090067E-1,6.093900204E-1,3.091000021E-3,7.498950748E-1
2.880440163E0,-4.826169908E-1,3.357009888E-1,1.235200018E-1,6.007258148E-1
2.885451640E0,-5.178549886E-1,5.897299945E-2,2.457090020E-1,5.762156866E-1
2.890463026E0,-5.757089853E-1,-1.964779943E-1,4.136739969E-1,7.356429934E-1
2.895474416E0,-5.884500146E-1,-3.638040125E-1,5.802400112E-1,9.029425507E-1
2.900485801E0,-5.922080278E-1,-4.927049875E-1,8.153970242E-1,1.121757933E0
2.905497108E0,-5.941780210E-1,-5.566840172E-1,1.099472046E0,1.368131352E0
2.910508554E0,-6.150339842E-1,-6.659770012E-1,1.346830010E0,1.623497227E0
2.915519941E0,-5.798180103E-1,-7.596650124E-1,1.430366039E0,1.720240350E0
2.920531219E0,-5.295640230E-1,-8.434500098E-1,1.400923014E0,1.718845910E0
2.925542679E0,-4.415180087E-1,-8.775669932E-1,1.278190970E0,1.612089990E0
2.930553988E0,-3.100070059E-1,-8.837580085E-1,1.139441013E0,1.474943519E0
2.935565457E0,-1.570910066E-1,-8.933380246E-1,9.732599854E-1,1.330400470E0
2.940576767E0,-4.601600021E-2,-9.039940238E-1,8.036130071E-1,1.210419982E0
2.945588140E0,7.328899950E-2,-9.085969925E-1,6.234329939E-1,1.104349795E0
2.950599525E0,1.543900073E-1,-8.880900145E-1,4.424040020E-1,1.004122228E0
2.955610895E0,1.824000031E-1,-8.350039721E-1,3.001439869E-1,9.058630180E-1
2.960622279E0,2.030529976E-1,-7.344120145E-1,2.307610065E-1,7.961420533E-1
2.965633664E0,2.188840061E-1,-6.267089844E-1,1.903109998E-1,6.905741350E-1
2.970645025E0,1.117789969E-1,-5.402740240E-1,1.869779974E-1,5.825386997E-1
2.975656410E0,-9.621399641E-2,-4.535549879E-1,1.941439956E-1,5.026541069E-1
2.980667824E0,-3.096300066E-1,-3.539899886E-1,2.650800049E-1,5.398583721E-1
2.985679209E0,-4.335350096E-1,-2.055329978E-1,3.590109944E-1,5.992372751E-1
2.990690594E0,-4.451160133E-1,-6.822100282E-2,4.218750000E-1,6.170582518E-1
2.995702054E0,-4.194970131E-1,4.960099980E-2,3.472039998E-1,5.467985192E-1
3.000713440E0,-3.621999919E-1,1.166620031E-1,2.384079993E-1,4.490403448E-1
3.005724748E0,-2.627019882E-1,1.477410048E-1,1.684419960E-1,3.452715527E-1
3.010736116E0,-1.408910006E-1,1.790190041E-1,1.483960003E-1,2.718813175E-1
3.015747500E0,2.579800040E-2,2.321940064E-1,1.515340060E-1,2.784639087E-1
3.020758885E0,1.524849981E-1,2.620570064E-1,1.889770031E-1,3.572644076E-1
3.025770260E0,2.264290005E-1,2.851189971E-1,2.087319940E-1,4.196808074E-1
3.030781722E0,2.235070020E-1,2.771619856E-1,1.876070052E-1,4.024556306E-1
3.035793109E0,1.415510029E-1,2.811810076E-1,1.615940034E-1,3.538531721E-1
3.040804406E0,5.281399935E-2,2.712790072E-1,1.724659950E-1,3.257700687E-1
3.045815789E0,-4.909399897E-2,2.742620111E-1,2.331700027E-1,3.633154574E-1
3.050827174E0,-1.704899967E-1,2.831160128E-1,3.169049919E-1,4.578758451E-1
3.055838529E0,-3.130910099E-1,3.074299991E-1,4.093320072E-1,6.000765592E-1
3.060849914E0,-4.555580020E-1,3.486250043E-1,4.008890092E-1,6.998460434E-1
3.065861385E0,-5.448290110E-1,3.632690012E-1,3.477860093E-1,7.414567598E-1
3.070872695E0,-5.666559935E-1,3.586390018E-1,2.977260053E-1,7.337313697E-1
3.075884078E0,-5.765830278E-1,2.945069969E-1,2.877500057E-1,7.085071806E-1
3.080895462E0,-5.891370177E-1,2.095630020E-1,3.335059881E-1,7.086785742E-1
3.085906842E0,-6.138240099E-1,9.461800009E-2,4.267970026E-1,7.535835471E-1
3.090918227E0,-6.340540051E-1,-1.429899968E-2,5.577639937E-1,8.445884297E-1
3.095929611E0,-6.382979751E-1,-1.054890007E-1,6.889190078E-1,9.450722901E-1
3.100940996E0,-5.989850163E-1,-1.841849983E-1,7.999470234E-1,1.016180301E0
3.105952381E0,-5.331959724E-1,-2.800840139E-1,8.120729923E-1,1.011042801E0
3.110963775E0,-4.552679956E-1,-3.847579956E-1,7.042660117E-1,9.226582673E-1
3.115975160E0,-3.723540008E-1,-4.776229858E-1,5.051659942E-1,7.886468793E-1
3.120986545E0,-2.708449960E-1,-5.544009805E-1,2.613810003E-1,6.701025939E-1
3.125997940E0,-1.307920069E-1,-5.986139774E-1,2.194999950E-3,6.127397988E-1
3.131009325E0,3.014400043E-2,-5.836060047E-1,-2.135059983E-1,6.221651234E-1
3.136020709E0,2.183009982E-1,-5.375649929E-1,-3.846499920E-1,6.961228798E-1
3.141031863E0,4.444049895E-1,-4.642490149E-1,-4.659729898E-1,7.938222532E-1
3.146043246E0,6.704779863E-1,-3.916800022E-1,-4.974049926E-1,9.221527427E-1
3.151054630E0,8.598970175E-1,-2.931979895E-1,-5.035960078E-1,1.038747746E0
3.156066260E0,9.792979956E-1,-1.829320043E-1,-4.897980094E-1,1.110130971E0
3.161077646E0,1.044847012E0,-8.011300117E-2,-4.868380129E-1,1.155480256E0
3.166089031E0,1.016268969E0,7.613999769E-3,-5.341519713E-1,1.148119732E0
3.171100421E0,9.148460031E-1,1.157559976E-1,-6.188189983E-1,1.110531230E0
3.176111805E0,7.495279908E-1,2.110040039E-1,-6.959840059E-1,1.044369970E0
3.181123224E0,5.894550085E-1,2.936609983E-1,-7.616900206E-1,1.006908971E0
3.186134608E0,4.553160071E-1,3.733879924E-1,-8.233609796E-1,1.012252222E0
3.191145988E0,3.808569908E-1,4.218870103E-1,-8.629000187E-1,1.033265280E0
3.196157142E0,3.363609910E-1,4.155580103E-1,-8.787869811E-1,1.028636833E0
3.201168755E0,3.417829871E-1,3.859930038E-1,-8.484140038E-1,9.927802029E-1
3.206179911E0,3.537620008E-1,3.049759865E-1,-7.660760283E-1,8.972348560E-1
3.211191294E0,3.419089913E-1,1.753239930E-1,-6.427230239E-1,7.488211711E-1
3.216202687E0,3.069419861E-1,4.482100159E-2,-5.165879726E-1,6.025657130E-1
3.221214072E0,2.542819977E-1,-9.116800129E-2,-3.691120148E-1,4.573998451E-1
3.226225457E0,2.054879963E-1,-2.042710036E-1,-2.448250055E-1,3.793299921E-1
3.231236837E0,1.535159945E-1,-2.945469916E-1,-1.196879968E-1,3.530585042E-1
3.236248222E0,1.380089968E-1,-3.501850069E-1,2.028000075E-3,3.764042176E-1
3.241259616E0,1.208200008E-1,-3.718090057E-1,7.909700274E-2,3.988680799E-1
3.246271001E0,8.113200217E-2,-3.669089973E-1,1.339060068E-1,3.989178270E-1
3.251282616E0,2.429099940E-2,-3.382369876E-1,1.674879938E-1,3.782149396E-1
3.256294021E0,-3.296099976E-2,-3.124180138E-1,1.663870066E-1,3.554941333E-1
3.261305175E0,-1.138139963E-1,-3.138059974E-1,1.126699969E-1,3.523100310E-1
3.266316784E0,-1.919389963E-1,-3.141359985E-1,7.708999794E-3,3.682138408E-1
3.271328170E0,-2.418580055E-1,-3.276790082E-1,-1.079500020E-1,4.213336329E-1
3.276339541E0,-2.667750120E-1,-3.444910049E-1,-1.898609996E-1,4.752790325E-1
3.281350695E0,-2.744520009E-1,-3.673380017E-1,-3.157669902E-1,5.567494054E-1
3.286362077E0,-2.862699926E-1,-3.748759925E-1,-4.634540081E-1,6.612655564E-1
3.291373462E0,-3.162649870E-1,-3.646380007E-1,-6.091380119E-1,7.771959413E-1
3.296384842E0,-3.221299946E-1,-3.290199935E-1,-7.180749774E-1,8.530261208E-1
3.301396226E0,-2.931590080E-1,-2.510899901E-1,-8.121809959E-1,8.992365414E-1
3.306407606E0,-2.698540092E-1,-1.860399991E-1,-9.387509823E-1,9.943266436E-1
3.311418990E0,-2.265429944E-1,-1.070009992E-1,-1.018043041E0,1.048419084E0
3.316430375E0,-1.823150069E-1,-4.437199980E-2,-1.037971973E0,1.054795456E0
3.321441751E0,-1.279069930E-1,-4.716999829E-3,-9.910569787E-1,9.992879385E-1
3.326453136E0,-8.448400348E-2,5.075199902E-2,-8.815310001E-1,8.870232333E-1
3.331464521E0,-4.932000116E-2,8.367300034E-2,-7.667430043E-1,7.728702790E-1
3.336475910E0,-9.884999692E-2,-8.876999840E-3,-6.707530022E-1,6.780558332E-1
3.341487295E0,-1.960499957E-2,-3.284100071E-2,-5.225419998E-1,5.239399096E-1
3.346498690E0,5.245599896E-2,-3.386700153E-2,-3.718529940E-1,3.770586887E-1
3.351510074E0,1.037449986E-1,-5.059999973E-2,-2.582139969E-1,2.828389169E-1
3.356521453E0,1.442400068E-1,-9.032599628E-2,-1.549459994E-1,2.301569636E-1
3.361532837E0,1.928369999E-1,-1.342500001E-1,-9.196899831E-2,2.523241322E-1
3.366544221E0,2.052000016E-1,-1.898290068E-1,-6.115999818E-2,2.861514247E-1
3.371555522E0,2.242169976E-1,-2.332919985E-1,-5.239300057E-2,3.277856695E-1
3.376566905E0,2.240000069E-1,-2.629050016E-1,-1.160050035E-1,3.643517583E-1
3.381578366E0,2.213560045E-1,-2.641519904E-1,-1.568260044E-1,3.786411895E-1
3.386589676E0,2.071100026E-1,-2.420829982E-1,-2.241880000E-1,3.895625630E-1
3.391601048E0,2.187680006E-1,-1.626909971E-1,-2.169589996E-1,3.484236016E-1
3.396612433E0,1.511050016E-1,-1.574349999E-1,-2.003780007E-1,2.962597575E-1
3.401623804E0,8.096899837E-2,-1.407870054E-1,-2.536540031E-1,3.011931488E-1
3.406635188E0,-3.082700074E-2,-9.385299683E-2,-3.472110033E-1,3.609905398E-1
3.411646669E0,-1.551910043E-1,-9.747599810E-2,-4.087179899E-1,4.479243388E-1
3.416658056E0,-2.175900042E-1,-6.746000051E-2,-4.085280001E-1,4.677514174E-1
3.421669416E0,-2.570070028E-1,-2.302899957E-2,-4.180960059E-1,4.913117182E-1
3.426680724E0,-3.110060096E-1,1.206700038E-2,-3.997850120E-1,5.066541289E-1
3.431692183E0,-3.862699866E-1,1.715300046E-2,-2.754139900E-1,4.747121169E-1
3.436703579E0,-4.381119907E-1,-5.034999922E-3,-9.645099938E-2,4.486315447E-1
3.441714887E0,-4.395940006E-1,-1.377800014E-2,9.393300116E-2,4.497289487E-1
3.446726327E0,-4.317519963E-1,-3.778700158E-2,3.101060092E-1,5.329196757E-1
3.451737637E0,-4.380570054E-1,-1.059259996E-1,5.072100163E-1,6.785103227E-1
3.456749020E0,-4.256500006E-1,-1.470170021E-1,6.301000118E-1,7.744791455E-1
3.461760433E0,-4.183210135E-1,-1.901769936E-1,7.017790079E-1,8.388405898E-1
3.466771818E0,-4.114710093E-1,-2.120130062E-1,7.050359845E-1,8.434059792E-1
3.471783203E0,-3.910849988E-1,-2.082830071E-1,6.322010159E-1,7.720151630E-1
3.476794587E0,-3.948079944E-1,-2.294709980E-1,5.103790164E-1,6.848481815E-1
3.481805972E0,-3.153750002E-1,-1.964700073E-1,4.154959917E-1,5.574036003E-1
3.486817342E0,-2.227140069E-1,-1.142340004E-1,3.073939979E-1,3.964114096E-1
3.491828727E0,-1.496479958E-1,-6.392200291E-2,2.068929970E-1,2.632209287E-1
3.496840127E0,-7.455900311E-2,-2.630399913E-2,1.064620018E-1,1.326088351E-1
3.501851512E0,-3.233499825E-2,3.467300162E-2,2.953599952E-2,5.585825293E-2
3.506862897E0,-1.029300038E-2,5.469499901E-2,-2.491799928E-2,6.097864759E-2
3.511874306E0,-5.479000043E-3,5.316200107E-2,-5.298500136E-2,7.525708052E-2
3.516885690E0,-2.189400047E-2,4.695500061E-2,-6.467600167E-2,8.286799461E-2
3.521897074E0,-3.553700075E-2,7.410999853E-3,-7.692199945E-2,8.505760014E-2
3.526908214E0,-7.438699901E-2,-3.218600154E-2,-1.080759987E-1,1.350917681E-1
3.531919596E0,-8.650100231E-2,-7.174099982E-2,-1.249869987E-1,1.680801723E-1
3.536931208E0,-9.586799890E-2,-1.041869968E-1,-1.488080025E-1,2.054006454E-1
3.541942364E0,-1.234830022E-1,-1.583819985E-1,-1.885689944E-1,2.754835293E-1
3.546953746E0,-1.246860027E-1,-2.127079964E-1,-2.134740055E-1,3.261325528E-1
3.551965140E0,-1.351470053E-1,-2.503080070E-1,-2.191130072E-1,3.590672936E-1
3.556976524E0,-1.499480009E-1,-2.808380127E-1,-2.314980030E-1,3.936314491E-1
3.561987909E0,-1.713369936E-1,-3.089070022E-1,-2.225310057E-1,4.174924549E-1
3.566999529E0,-1.875769943E-1,-3.325200081E-1,-2.577919960E-1,4.606640834E-1
3.572010685E0,-1.942529976E-1,-3.418329954E-1,-2.664819956E-1,4.749701862E-1
3.577022068E0,-1.962449998E-1,-3.536350131E-1,-2.819649875E-1,4.930254320E-1
3.582033453E0,-1.844539940E-1,-3.650520146E-1,-2.438270003E-1,4.761699857E-1
3.587044847E0,-1.499669999E-1,-3.884850144E-1,-2.629590034E-1,4.925019238E-1
3.592056232E0,-1.027909964E-1,-3.901529908E-1,-2.423450053E-1,4.706553376E-1
3.597067620E0,-2.467500046E-2,-3.988029957E-1,-2.297780067E-1,4.609236568E-1
3.602079005E0,5.340100080E-2,-4.073199928E-1,-2.273990065E-1,4.695439826E-1
3.607090376E0,1.453489959E-1,-3.939250112E-1,-1.906750053E-1,4.611509543E-1
3.612101761E0,2.229889929E-1,-3.778319955E-1,-1.575829983E-1,4.661689706E-1
3.617113160E0,2.426510006E-1,-3.806740046E-1,-1.420239955E-1,4.732473150E-1
3.622124545E0,2.663640082E-1,-3.715029955E-1,-1.457760036E-1,4.798071527E-1
3.627135901E0,2.778350115E-1,-3.384560049E-1,-1.517110020E-1,4.634231209E-1
3.632147286E0,2.611919940E-1,-3.077670038E-1,-1.553090066E-1,4.325074263E-1
3.637158670E0,2.498250008E-1,-2.314729989E-1,-1.354459971E-1,3.665213477E-1
3.642170069E0,2.203290015E-1,-1.622029990E-1,-1.113220006E-1,2.953764879E-1
3.647181453E0,1.987989992E-1,-8.785899729E-2,-6.907700002E-2,2.280611265E-1
3.652192837E0,1.942130029E-1,-1.546400040E-2,-2.129999921E-3,1.948393254E-1
3.657204202E0,2.014240026E-1,5.965200067E-2,5.642100051E-2,2.175162507E-1
3.662215587E0,2.015800029E-1,1.154860035E-1,4.613300040E-2,2.368538965E-1
3.667226972E0,1.970800012E-1,1.376499981E-1,3.170400113E-2,2.424730759E-1
3.672238281E0,1.880480051E-1,1.356430054E-1,-3.331999993E-3,2.318882907E-1
3.677249740E0,1.628600061E-1,9.516999871E-2,-3.768799827E-2,1.923566881E-1
3.682261065E0,1.474609971E-1,3.334100172E-2,-3.199800104E-2,1.545323271E-1
3.687272525E0,1.044410020E-1,-4.012700170E-2,-8.355000056E-3,1.121958341E-1
3.692283911E0,7.185199857E-2,-1.320499927E-1,5.104799941E-2,1.587633727E-1
3.697295291E0,7.258799672E-2,-2.090680003E-1,1.036669984E-1,2.443875868E-1
3.702306676E0,7.792700082E-2,-2.807689905E-1,1.543589979E-1,3.297431481E-1
3.707317973E0,7.849899679E-2,-3.376910090E-1,1.939830035E-1,3.972741065E-1
3.712329356E0,1.046689972E-1,-3.614259958E-1,1.558420062E-1,4.072727346E-1
3.717340814E0,1.185090020E-1,-3.643850088E-1,7.263199985E-2,3.899951610E-1
3.722352123E0,1.181679964E-1,-3.657610118E-1,-2.195999958E-2,3.850026425E-1
3.727363506E0,9.940200299E-2,-3.298130035E-1,-1.226349995E-1,3.656456189E-1
3.732374894E0,1.137339994E-1,-2.946740091E-1,-2.131949961E-1,3.810778144E-1
3.737386279E0,1.206979975E-1,-2.504040003E-1,-2.614600062E-1,3.816169609E-1
3.742397664E0,1.251599938E-1,-2.015019953E-1,-2.780399919E-1,3.654782008E-1
3.747409039E0,1.388480067E-1,-1.691049933E-1,-2.548010051E-1,3.358553557E-1
3.752420424E0,1.405950040E-1,-1.387120038E-1,-2.090490013E-1,2.875925244E-1
3.757431809E0,1.492500007E-1,-1.242759973E-1,-1.159130037E-1,2.261767243E-1
3.762443194E0,1.298139989E-1,-1.403779984E-1,-5.118200183E-2,1.979324482E-1
3.767454555E0,1.319369972E-1,-1.581760049E-1,3.016700037E-2,2.081755693E-1
3.772465940E0,1.340570003E-1,-1.490440071E-1,1.117260009E-1,2.294953042E-1
3.777477325E0,1.247130036E-1,-1.490239948E-1,1.748829931E-1,2.614298100E-1
3.782488479E0,9.958100319E-2,-1.485339999E-1,2.411500067E-1,3.002200044E-1
3.787500092E0,8.456200361E-2,-1.359079927E-1,2.733370066E-1,3.167567428E-1
3.792511243E0,9.337600321E-2,-1.254969984E-1,3.073360026E-1,3.448535821E-1
3.797522857E0,8.105699718E-2,-1.462579966E-1,3.033260107E-1,3.463644138E-1
3.802534026E0,8.072400093E-2,-1.721650064E-1,2.575570047E-1,3.201449116E-1
3.807545409E0,8.270700276E-2,-1.863719970E-1,2.247390002E-1,3.034511291E-1
3.812556794E0,9.859400243E-2,-1.937530041E-1,1.860280037E-1,2.861248365E-1
3.817568164E0,8.381699771E-2,-2.061610073E-1,1.625359952E-1,2.755822922E-1
3.822579549E0,8.337300271E-2,-1.997109950E-1,1.376640052E-1,2.564896049E-1
3.827590948E0,6.444899738E-2,-2.152000070E-1,9.265500307E-2,2.430013701E-1
3.832602563E0,1.358999964E-2,-2.167389989E-1,4.901700094E-2,2.226278242E-1
3.837613719E0,1.354999957E-3,-2.088779956E-1,3.707899898E-2,2.121478382E-1
3.842625116E0,-2.442399971E-2,-2.108179927E-1,1.394800004E-2,2.126859293E-1
3.847636501E0,-7.261300087E-2,-2.033440024E-1,3.268999979E-3,2.159447095E-1
3.852647890E0,-9.615100175E-2,-2.103320062E-1,-7.052999921E-3,2.313748318E-1
3.857659199E0,-1.283639967E-1,-2.007610053E-1,-2.631000057E-2,2.397384263E-1
3.862670582E0,-1.249350011E-1,-1.794230044E-1,-3.769600019E-2,2.218611220E-1
3.867682274E0,-1.240860000E-1,-1.556019932E-1,-1.828099973E-2,1.998587267E-1
3.872693435E0,-9.323599935E-2,-1.504649967E-1,4.504600167E-2,1.826521532E-1
3.877704818E0,-5.419500172E-2,-1.738139987E-1,7.650899887E-2,1.974893194E-1
3.882716179E0,-3.043000028E-2,-1.782509983E-1,6.094399840E-2,1.908234111E-1
3.887727563E0,-2.368400060E-2,-1.881249994E-1,-9.782000445E-3,1.898621469E-1
3.892738948E0,-3.429000033E-3,-1.818899959E-1,-8.303499967E-2,1.999763482E-1
3.897750262E0,2.531200089E-2,-1.784379929E-1,-1.333619952E-1,2.242013302E-1
3.902761645E0,4.840499908E-2,-1.681089997E-1,-1.778009981E-1,2.494331066E-1
3.907773107E0,7.317399979E-2,-1.578360051E-1,-2.004780024E-1,2.654393871E-1
3.912784507E0,9.025900066E-2,-1.521710008E-1,-1.974090040E-1,2.650905799E-1
3.917795815E0,1.023460031E-1,-1.509280056E-1,-1.740649939E-1,2.520963889E-1
3.922807189E0,9.567499906E-2,-1.468659937E-1,-1.402519941E-1,2.244859626E-1
3.927818573E0,9.873100370E-2,-1.493979990E-1,-8.695899695E-2,1.990714454E-1
3.932829958E0,8.564300090E-2,-1.465869993E-1,-3.085399978E-2,1.725527203E-1
3.937841356E0,7.090199739E-2,-1.577740014E-1,2.599999971E-5,1.729732043E-1
3.942852741E0,4.758699983E-2,-1.662150025E-1,3.681499884E-2,1.767690407E-1
3.947864126E0,1.818500087E-2,-1.530970037E-1,4.476200044E-2,1.605397878E-1
3.952875497E0,-3.169999924E-3,-1.781470031E-1,5.226600170E-2,1.856828978E-1
3.957886882E0,-1.210900024E-2,-1.721930057E-1,4.576599970E-2,1.785821543E-1
3.962898286E0,-2.177000046E-3,-1.590950042E-1,4.897399992E-2,1.664764619E-1
3.967909671E0,2.376800030E-2,-1.485970020E-1,3.380399942E-2,1.542358494E-1
3.972921056E0,3.271799907E-2,-1.550250053E-1,1.685700007E-2,1.593341715E-1
3.977932436E0,8.938999847E-3,-1.544660032E-1,2.946000081E-3,1.547524823E-1
3.982943820E0,-2.102800086E-2,-1.661899984E-1,-2.665499970E-2,1.696224672E-1
3.987955223E0,-5.478600040E-2,-1.662050039E-1,-4.583099857E-2,1.809035367E-1
3.992966378E0,-7.132100314E-2,-1.664299965E-1,-6.190799922E-2,1.913589026E-1
3.997977746E0,-9.903600067E-2,-1.979530007E-1,-8.452899754E-2,2.369360068E-1
4.002989131E0,-1.167000011E-1,-2.200019956E-1,-9.964600205E-2,2.682332828E-1
4.008000530E0,-1.362539977E-1,-2.419569939E-1,-9.835100174E-2,2.945865889E-1
4.013011914E0,-1.274619997E-1,-2.587589920E-1,-6.241999939E-2,2.951254540E-1
4.018023299E0,-9.587799758E-2,-2.776449919E-1,-3.708599880E-2,2.960653699E-1
4.023034692E0,-6.990499794E-2,-2.771570086E-1,-1.252800040E-2,2.861112842E-1
4.028046077E0,-4.003399983E-2,-2.502439916E-1,4.521999974E-3,2.534664178E-1
4.033057692E0,-1.575800031E-2,-2.446350008E-1,3.275899962E-2,2.473211480E-1
4.038069079E0,-6.093999837E-3,-2.103099972E-1,4.665099829E-2,2.155081145E-1
4.043080233E0,1.261499990E-2,-1.833010018E-1,4.189100116E-2,1.884495992E-1
4.048091626E0,5.351000000E-3,-1.541240066E-1,2.593600005E-2,1.563826036E-1
4.053103010E0,-1.080700010E-2,-1.469220072E-1,-1.962699927E-2,1.486206128E-1
4.058114384E0,-2.179799974E-2,-1.351609975E-1,-4.288399965E-2,1.434666702E-1
4.063125768E0,-2.541800030E-2,-1.214459985E-1,-9.094899893E-2,1.538405854E-1
4.068137153E0,-1.039400045E-2,-1.245130002E-1,-9.820699692E-2,1.589217944E-1
4.073148434E0,-1.438600011E-2,-1.181050017E-1,-1.122990027E-1,1.636056675E-1
4.078159893E0,-1.594999991E-2,-1.045769975E-1,-1.190209985E-1,1.592380262E-1
4.083171304E0,-5.956000183E-3,-1.099790037E-1,-9.774699807E-2,1.472593998E-1
4.088182612E0,8.262000047E-3,-1.225109994E-1,-9.577099979E-2,1.557218354E-1
4.093193994E0,8.171999827E-3,-1.133780032E-1,-7.988300174E-2,1.389339669E-1
4.098205452E0,1.731899939E-2,-1.064819992E-1,-5.735199898E-2,1.221786220E-1
4.103216762E0,2.847599983E-2,-1.019020006E-1,-4.942600057E-2,1.167811193E-1
4.108228120E0,1.605799980E-2,-1.115180030E-1,-3.011599928E-2,1.166237445E-1
4.113239505E0,-2.920000115E-3,-1.211159974E-1,-3.003099933E-2,1.248177558E-1
4.118250889E0,-1.213600021E-2,-1.450539976E-1,-3.479300067E-2,1.496612763E-1
4.123262274E0,-4.204199836E-2,-1.712259948E-1,-1.621199958E-2,1.770556406E-1
4.128273658E0,-5.026400089E-2,-1.878390014E-1,-1.433799975E-2,1.949757382E-1
4.133284813E0,-5.366799980E-2,-2.043700069E-1,-3.181000007E-3,2.113231476E-1
4.138296196E0,-5.702599883E-2,-2.185650021E-1,-8.562999777E-3,2.260441321E-1
4.143307812E0,-6.035299972E-2,-2.352250069E-1,-1.131699979E-2,2.431077188E-1
4.148319198E0,-4.509700090E-2,-2.377489954E-1,-3.482000157E-2,2.444805858E-1
4.153330583E0,-3.485900164E-2,-2.380290031E-1,-5.300600082E-2,2.463383698E-1
4.158341747E0,6.350000040E-4,-2.264109999E-1,-5.656899884E-2,2.333717972E-1
4.163353360E0,2.355699986E-2,-2.242760062E-1,-4.368000105E-2,2.297011138E-1
4.168364747E0,2.973200008E-2,-2.194550037E-1,-5.485999864E-3,2.215278463E-1
4.173376136E0,2.661399916E-2,-2.192779928E-1,1.784499921E-2,2.216068300E-1
4.178387290E0,2.837000042E-2,-2.021909952E-1,5.019100010E-2,2.102503079E-1
4.183398654E0,6.920999847E-3,-1.899619997E-1,5.404900014E-2,1.976227618E-1
4.188410038E0,-9.247000329E-3,-1.733099967E-1,2.805499919E-2,1.758093995E-1
4.193421432E0,-4.123200104E-2,-1.593140066E-1,7.732999977E-3,1.647447416E-1
4.198432817E0,-7.468999922E-2,-1.192149967E-1,-2.270000055E-3,1.406981319E-1
4.203444201E0,-7.486099750E-2,-8.417999744E-2,-2.566299960E-2,1.155380044E-1
4.208455586E0,-6.352899969E-2,-6.588400155E-2,-1.795900054E-2,9.326929378E-2
4.213466971E0,-4.802199826E-2,-5.975300074E-2,-4.304099828E-2,8.791507804E-2
4.218478356E0,-1.680600084E-2,-4.926300049E-2,-9.291400015E-2,1.065002174E-1
4.223489741E0,2.748199925E-2,-4.160099849E-2,-1.531769931E-1,1.610872266E-1
4.228501045E0,5.909200013E-2,-5.815500021E-2,-2.099950016E-1,2.257692831E-1
4.233512505E0,5.982299894E-2,-8.926899731E-2,-2.612920105E-1,2.825265649E-1
4.238523892E0,3.534099832E-2,-1.253329962E-1,-3.143990040E-1,3.402999850E-1
4.243535194E0,-4.468000028E-3,-1.757020056E-1,-3.461669981E-1,3.882302776E-1
4.248546577E0,-4.075499997E-2,-1.993239969E-1,-3.268049955E-1,3.849578300E-1
4.253558039E0,-2.962199971E-2,-2.054720074E-1,-2.621459961E-1,3.343900895E-1
4.258569333E0,-2.812799998E-2,-1.869589984E-1,-1.809599996E-1,2.617085649E-1
4.263580716E0,-1.034200005E-2,-1.461870074E-1,-9.038899839E-2,1.721852756E-1
4.268592101E0,2.560300007E-2,-1.121539995E-1,-2.769500017E-2,1.183260168E-1
4.273603509E0,4.199599847E-2,-9.451500326E-2,2.656500041E-2,1.067822503E-1
4.278614894E0,6.748600304E-2,-8.377599716E-2,6.787499785E-2,1.271998178E-1
4.283626050E0,7.155200094E-2,-8.269099891E-2,6.401800364E-2,1.267114633E-1
4.288637668E0,5.708999932E-2,-6.753300130E-2,3.963100165E-2,9.690505962E-2
4.293648824E0,2.923299931E-2,-7.451199740E-2,-3.767399862E-2,8.846432150E-2
4.298660418E0,1.385299955E-2,-8.010900021E-2,-1.664299965E-1,1.852250017E-1
4.303671805E0,8.248999715E-3,-9.660000354E-2,-3.478800058E-1,3.611372387E-1
4.308683214E0,1.432599965E-2,-1.047099978E-1,-5.202429891E-1,5.308692735E-1
4.313694598E0,2.699300088E-2,-8.691599965E-2,-6.024870276E-1,6.093222723E-1
4.318705761E0,2.985499986E-2,-7.099100202E-2,-5.692970157E-1,5.744824936E-1
4.323717144E0,3.470800072E-2,-4.197499901E-2,-4.540100098E-1,4.572653877E-1
4.328728528E0,-2.309999982E-4,-1.916199923E-2,-3.398869932E-1,3.404267964E-1
4.333739904E0,-4.815300182E-2,-9.827000089E-3,-2.266139984E-1,2.318818358E-1
4.338751289E0,-1.364970058E-1,5.204000045E-3,-1.047530025E-1,1.721386237E-1
4.343762673E0,-2.175530046E-1,4.017600045E-2,1.656600088E-2,2.218509707E-1
4.348774063E0,-2.775529921E-1,8.540000021E-2,1.282420009E-1,3.174505226E-1
4.353785447E0,-3.056209981E-1,9.266799688E-2,1.837279946E-1,3.684393141E-1
4.358796817E0,-2.982139885E-1,8.082400262E-2,1.985040009E-1,3.672437076E-1
4.363808202E0,-2.540509999E-1,2.364400029E-2,2.057159990E-1,3.277499375E-1
4.368819578E0,-2.277009934E-1,-5.287100002E-2,1.586430073E-1,2.825078562E-1
4.373830963E0,-1.839209944E-1,-1.247330010E-1,1.168790013E-1,2.510895351E-1
4.378842338E0,-1.416800022E-1,-2.014539987E-1,8.018399775E-2,2.590104440E-1
4.383853646E0,-1.102589965E-1,-2.923069894E-1,6.665699929E-2,3.194426051E-1
4.388865024E0,-6.837199628E-2,-3.445909917E-1,7.368999720E-2,3.589538928E-1
4.393876409E0,-6.255400181E-2,-3.939389884E-1,1.171479970E-1,4.157217615E-1
4.398887793E0,-5.005599931E-2,-4.238139987E-1,1.427509934E-1,4.500019496E-1
4.403899255E0,-2.637499943E-2,-4.371190071E-1,1.187900007E-1,4.537397175E-1
4.408910564E0,-1.737900078E-2,-4.386839867E-1,9.566300362E-2,4.493295896E-1
4.413921947E0,-2.493000031E-2,-4.238950014E-1,6.199000031E-2,4.291284624E-1
4.418933103E0,-2.995700017E-2,-4.021860063E-1,4.120299965E-2,4.053994237E-1
4.423944716E0,-2.378999954E-3,-3.713069856E-1,5.065000150E-3,3.713491503E-1
4.428956103E0,1.511199959E-2,-3.309859931E-1,5.284999963E-3,3.313729491E-1
4.433967488E0,5.072399974E-2,-3.217320144E-1,1.016900036E-2,3.258647293E-1
4.438978867E0,7.607699931E-2,-2.909489870E-1,1.749799959E-2,3.012394444E-1
4.443990252E0,1.054319963E-1,-2.315720022E-1,2.286400087E-2,2.554687076E-1
4.449001636E0,1.318050027E-1,-1.914809942E-1,2.394299954E-2,2.336895315E-1
4.454013046E0,1.553969979E-1,-1.633809954E-1,3.232299909E-2,2.277857609E-1
4.459024200E0,1.810050011E-1,-1.450169981E-1,2.213199995E-2,2.329861918E-1
4.464035813E0,1.805409938E-1,-1.579920053E-1,-1.612000051E-3,2.399148239E-1
4.469046969E0,1.547120064E-1,-1.757989973E-1,-6.062999833E-3,2.342602236E-1
4.474058347E0,1.110960022E-1,-1.984329969E-1,-1.035900041E-2,2.276516743E-1
4.479069731E0,9.425099939E-2,-2.067340016E-1,-7.400000002E-3,2.273256658E-1
4.484081116E0,7.079400122E-2,-2.126690000E-1,-4.348000046E-3,2.241847437E-1
4.489092530E0,7.803600281E-2,-1.967020035E-1,5.253199860E-2,2.180387736E-1
4.494103914E0,8.957400173E-2,-2.063090056E-1,1.428509951E-1,2.664457062E-1
4.499115200E0,9.378500283E-2,-2.228939980E-1,1.846680045E-1,3.042690142E-1
4.504126660E0,9.086000174E-2,-2.471410036E-1,1.443659961E-1,3.002927845E-1
4.509137973E0,6.476800144E-2,-2.485029995E-1,4.528599977E-2,2.607670542E-1
4.514149433E0,3.016199917E-2,-2.532390058E-1,-5.296500027E-2,2.604707882E-1
4.519160738E0,-3.498000093E-3,-2.347349972E-1,-1.202540025E-1,2.637684212E-1
4.524172121E0,-3.630400077E-2,-2.238740027E-1,-1.668779999E-1,2.815773720E-1
4.529183520E0,-6.601800025E-2,-2.035360038E-1,-1.773039997E-1,2.778884480E-1
4.534194904E0,-7.869499922E-2,-1.832620054E-1,-1.827290058E-1,2.704953883E-1
4.539206303E0,-7.946799695E-2,-1.484449953E-1,-1.600400060E-1,2.323012757E-1
4.544217688E0,-7.103600353E-2,-1.303330064E-1,-1.518490016E-1,2.123462400E-1
4.549229068E0,-4.215599969E-2,-1.120219976E-1,-1.323370039E-1,1.784352512E-1
4.554240453E0,-2.577799931E-2,-1.102410033E-1,-1.087630019E-1,1.569935497E-1
4.559251858E0,-5.371999927E-3,-9.412200004E-2,-1.066479981E-1,1.423432639E-1
4.564263012E0,7.410000078E-3,-1.064860001E-1,-8.376000077E-2,1.356831384E-1
4.569274375E0,1.740499958E-2,-1.258389950E-1,-6.388299912E-2,1.421950219E-1
4.574285760E0,1.309600007E-2,-1.476410031E-1,-7.253800333E-2,1.650185837E-1
4.579297154E0,2.058699913E-2,-1.622900069E-1,-7.392200083E-2,1.795169437E-1
4.584308770E0,3.013299964E-2,-1.602170020E-1,-7.280699909E-2,1.785450770E-1
4.589320146E0,3.935100138E-2,-1.581539959E-1,-6.926199794E-2,1.770830655E-1
4.594331300E0,6.223300099E-2,-1.848569959E-1,-7.749000192E-2,2.098803368E-1
4.599342683E0,4.972799867E-2,-1.925320029E-1,-9.252600372E-2,2.193228382E-1
4.604354067E0,7.010100037E-2,-1.905789971E-1,-8.618900180E-2,2.205970273E-1
4.609365452E0,7.128100097E-2,-2.533349991E-1,-9.407520294E-1,9.768694814E-1
4.614376847E0,-5.041310191E-1,-2.822139859E-1,-1.567453027E0,1.670539377E0
4.619388231E0,2.229399979E-2,1.466889977E-1,1.812289953E-1,2.342191991E-1
4.624399616E0,3.384650052E-1,2.280790061E-1,4.761559963E-1,6.271388407E-1
4.629410901E0,1.578879952E-1,1.004249975E-1,7.378499955E-2,2.011418040E-1
4.634422360E0,1.221389994E-1,5.953700095E-2,-1.551000029E-1,2.062003893E-1
4.639433747E0,2.107689977E-1,7.555700094E-2,5.723400041E-2,2.311020588E-1
4.644445044E0,2.784759998E-1,3.879699856E-2,3.338330090E-1,4.364614158E-1
4.649456427E0,1.817730069E-1,-9.057000279E-2,4.165939987E-1,4.634597190E-1
4.654467812E0,7.639200240E-2,-2.129469961E-1,3.898920119E-1,4.507748242E-1
4.659479196E0,-3.940000024E-4,-3.258599937E-1,3.731090128E-1,4.953738247E-1
4.664490581E0,-2.630100027E-2,-4.104290009E-1,3.336650133E-1,5.295998947E-1
4.669501952E0,-6.787600368E-2,-4.641819894E-1,3.143639863E-1,5.647094714E-1
4.674513337E0,-1.176740006E-1,-5.323820114E-1,3.121039867E-1,6.282409371E-1
4.679524722E0,-1.476510018E-1,-5.693860054E-1,3.407160044E-1,6.797710182E-1
4.684536116E0,-2.002079934E-1,-6.022059917E-1,3.018839955E-1,7.027583111E-1
4.689547501E0,-2.674799860E-1,-6.577529907E-1,1.831330061E-1,7.332954641E-1
4.694558882E0,-3.744460046E-1,-7.416589856E-1,-4.876599833E-2,8.322535575E-1
4.699570266E0,-2.836549878E-1,-5.319740176E-1,-3.302490115E-1,6.874015691E-1
4.704581420E0,-1.773699969E-1,-2.807149887E-1,-4.535680115E-1,5.621253968E-1
4.709592807E0,-1.160489991E-1,-9.420300275E-2,-4.590539932E-1,4.827754598E-1
4.714604191E0,-7.281100005E-2,1.859599911E-2,-4.109199941E-1,4.177349572E-1
4.719615572E0,-4.711899906E-2,9.629999846E-2,-3.246450126E-1,3.418892715E-1
