"Time (s)","Linear Acceleration x (m/s^2)","Linear Acceleration y (m/s^2)","Linear Acceleration z (m/s^2)","Absolute acceleration (m/s^2)"
4.234850200E-2,-1.364693999E0,-6.659399718E-2,-1.256300043E-2,1.366375608E0
4.736019500E-2,-1.219228029E0,-8.506000042E-2,-2.534979880E-1,1.248204078E0
5.237165800E-2,-1.096061945E0,-1.370559931E-1,-3.416149914E-1,1.156216647E0
5.738330000E-2,-1.024871945E0,-1.790439934E-1,-3.398410082E-1,1.094491282E0
6.239499200E-2,-9.603739977E-1,-2.125680000E-1,-1.762869954E-1,9.992899853E-1
6.740645500E-2,-9.905940294E-1,-2.399699986E-1,3.775599971E-2,1.019944923E0
7.241806400E-2,-9.850479960E-1,-2.688100040E-1,1.898480058E-1,1.038566627E0
7.742975600E-2,-9.956769943E-1,-2.930249870E-1,1.661799997E-1,1.051119457E0
8.244142300E-2,-9.824389815E-1,-3.126139939E-1,1.344089955E-1,1.039701707E0
8.745288700E-2,-9.623479843E-1,-3.297640085E-1,1.341809928E-1,1.026090875E0
9.246450500E-2,-9.587119818E-1,-3.375529945E-1,9.490499645E-2,1.020822044E0
9.747596900E-2,-9.154310226E-1,-3.550690114E-1,6.199600175E-2,9.838350799E-1
1.024876300E-1,-8.940780163E-1,-3.558770120E-1,5.625500157E-2,9.639442785E-1
1.074992480E-1,-8.777549863E-1,-3.374609947E-1,7.455699891E-2,9.433411286E-1
1.125109380E-1,-8.733999729E-1,-3.237240016E-1,9.520699829E-2,9.363167810E-1
1.175223870E-1,-8.899840117E-1,-3.101319969E-1,6.683299690E-2,9.448386349E-1
1.225340000E-1,-8.690310121E-1,-2.797499895E-1,6.517899781E-2,9.152722318E-1
1.275456730E-1,-8.465129733E-1,-2.423119992E-1,3.602800146E-2,8.812476019E-1
1.325571370E-1,-8.410069942E-1,-2.123879939E-1,-3.629099950E-2,8.681696038E-1
1.375687500E-1,-8.310509920E-1,-1.994210035E-1,-8.546499908E-2,8.589055559E-1
1.425804380E-1,-8.516420126E-1,-1.889909953E-1,-1.310130060E-1,8.821429145E-1
1.475919010E-1,-8.530120254E-1,-1.857009977E-1,-1.475369930E-1,8.853708490E-1
1.526035810E-1,-8.358169794E-1,-1.726620048E-1,-1.405539960E-1,8.649610493E-1
1.576151990E-1,-7.981560230E-1,-1.690579951E-1,-1.386120021E-1,8.275547897E-1
1.626266600E-1,-7.592160106E-1,-1.747359931E-1,-1.067209989E-1,7.863402505E-1
1.676383510E-1,-6.957700253E-1,-1.823759973E-1,-4.810800031E-2,7.208823150E-1
1.726500190E-1,-6.594640017E-1,-1.992910057E-1,-5.175999831E-3,6.889386514E-1
1.776616360E-1,-5.656239986E-1,-2.328079939E-1,1.320200041E-2,6.118041865E-1
1.826731120E-1,-5.824620128E-1,-3.680570126E-1,1.859779954E-1,7.136636292E-1
1.876848020E-1,-7.744200230E-1,-3.894810081E-1,-1.026299968E-2,8.669066598E-1
1.926964200E-1,-7.498819828E-1,-3.227759898E-1,-6.988299638E-2,8.193845013E-1
1.977081100E-1,-6.917529702E-1,-2.417410016E-1,-5.500800163E-2,7.348379168E-1
2.027195680E-1,-6.333339810E-1,-1.942439973E-1,-4.697899893E-2,6.641157191E-1
2.077311820E-1,-6.021929979E-1,-1.921859980E-1,-3.648199886E-2,6.331688565E-1
2.127428740E-1,-5.881829858E-1,-1.973920017E-1,-4.440199956E-2,6.220083317E-1
2.177543190E-1,-5.699509978E-1,-1.979169995E-1,-5.867400020E-2,6.061830721E-1
2.227660090E-1,-5.174850225E-1,-1.961639971E-1,-6.273499876E-2,5.569620655E-1
2.277776260E-1,-4.318479896E-1,-1.802069992E-1,-6.384199858E-2,4.722743370E-1
2.327890830E-1,-3.741180003E-1,-1.975490004E-1,-8.786000311E-3,4.231631830E-1
2.378007730E-1,-2.411209941E-1,-2.296849936E-1,-5.244800076E-2,3.371132197E-1
2.428123910E-1,-2.277929932E-1,-2.573249936E-1,-9.671700001E-2,3.570153753E-1
2.478240470E-1,-2.100010067E-1,-2.755250037E-1,-1.137970015E-1,3.646425757E-1
2.528355110E-1,-1.994690001E-1,-3.055579960E-1,-8.361999691E-2,3.743606214E-1
2.578472010E-1,-1.820600033E-1,-3.308039904E-1,-7.489299774E-2,3.849494590E-1
2.628588180E-1,-1.671919972E-1,-3.537470102E-1,-8.706700057E-2,4.008375902E-1
2.678705090E-1,-1.733369976E-1,-3.649699986E-1,-1.285409927E-1,4.239948130E-1
2.728819720E-1,-1.604299992E-1,-3.953529894E-1,-1.266620010E-1,4.450674482E-1
2.778936020E-1,-1.754239947E-1,-3.946349919E-1,-1.290429980E-1,4.507354546E-1
2.829052940E-1,-1.709370017E-1,-4.202229977E-1,-1.263439953E-1,4.709242311E-1
2.879167660E-1,-1.730459929E-1,-4.529719949E-1,-1.233220026E-1,5.003367467E-1
2.929284570E-1,-1.907889992E-1,-4.926080108E-1,-7.833000273E-2,5.340399646E-1
2.979400780E-1,-2.005410045E-1,-5.367220044E-1,-2.034400031E-2,5.733245877E-1
3.029517690E-1,-2.163899988E-1,-5.829380155E-1,2.457099967E-2,6.222902020E-1
3.079632370E-1,-2.365899980E-1,-6.098440289E-1,5.930100009E-2,6.568113697E-1
3.129748500E-1,-2.489559948E-1,-6.273790002E-1,2.171500027E-2,6.753184719E-1
3.179863140E-1,-2.701370120E-1,-6.186140180E-1,1.603100076E-2,6.752142634E-1
3.229980230E-1,-3.301450014E-1,-6.024929881E-1,2.239700034E-2,6.873828251E-1
3.280097160E-1,-3.928329945E-1,-6.242579818E-1,6.342600286E-2,7.402963239E-1
3.330213330E-1,-4.072769880E-1,-6.457020044E-1,1.125869974E-1,7.716744492E-1
3.380327900E-1,-3.958890140E-1,-6.408730149E-1,1.120430008E-1,7.615772887E-1
3.430444800E-1,-3.919230103E-1,-6.244469881E-1,4.730600119E-2,7.387662315E-1
3.480560920E-1,-3.811309934E-1,-6.203860044E-1,-2.874100022E-2,7.286739145E-1
3.530675540E-1,-3.707939982E-1,-6.048349738E-1,-1.203259975E-1,7.195775708E-1
3.580792440E-1,-3.562789857E-1,-5.919589996E-1,-1.832859963E-1,7.148034201E-1
3.630909360E-1,-3.468939960E-1,-5.672420263E-1,-2.185059935E-1,6.998884412E-1
3.681025540E-1,-3.309629858E-1,-5.305979848E-1,-2.267600000E-1,6.651998324E-1
3.731142490E-1,-3.064599931E-1,-4.985829890E-1,-1.833879948E-1,6.132975468E-1
3.781257130E-1,-2.737149894E-1,-4.520969987E-1,-1.434510052E-1,5.476219340E-1
3.831373170E-1,-2.306360006E-1,-3.864769936E-1,-1.183329970E-1,4.653602148E-1
3.881490090E-1,-1.892279983E-1,-3.329069912E-1,-1.122960001E-1,3.990547479E-1
3.931604730E-1,-1.493210047E-1,-2.817929983E-1,-1.015319973E-1,3.346831380E-1
3.981721490E-1,-1.341370046E-1,-2.451169938E-1,-1.117080003E-1,3.009215080E-1
4.031837670E-1,-1.288859993E-1,-2.252019942E-1,-1.167260036E-1,2.845215263E-1
4.081954380E-1,-1.425500065E-1,-2.218700051E-1,-9.359300137E-2,2.798329027E-1
4.132069020E-1,-1.582169980E-1,-2.590099871E-1,-6.411399692E-2,3.102086338E-1
4.182186060E-1,-1.781200022E-1,-2.935360074E-1,-3.308900073E-2,3.449420310E-1
4.232302230E-1,-1.673060060E-1,-3.327490091E-1,-7.501999848E-3,3.725177616E-1
4.282416850E-1,-1.358969957E-1,-3.911159933E-1,8.239000104E-3,4.141347543E-1
4.332533660E-1,-1.007290035E-1,-4.399729967E-1,1.929800026E-2,4.517687271E-1
4.382649840E-1,-6.869500130E-2,-5.032290220E-1,2.810399979E-2,5.086730646E-1
4.432764630E-1,-3.041799925E-2,-5.498629808E-1,1.857700013E-2,5.510169302E-1
4.482883840E-1,1.634999923E-2,-6.134889722E-1,-1.551300008E-2,6.139028381E-1
4.532997710E-1,6.657499820E-2,-6.629580259E-1,-3.404900059E-2,6.671618312E-1
4.583114570E-1,9.466800094E-2,-7.030130029E-1,-6.527200341E-2,7.123550709E-1
4.633231500E-1,1.128130034E-1,-7.359150052E-1,-6.717299670E-2,7.475358721E-1
4.683346130E-1,1.283310056E-1,-7.855690122E-1,-6.846600026E-2,7.989212183E-1
4.733463130E-1,1.250240058E-1,-8.183169961E-1,-3.908000141E-2,8.287345502E-1
4.783579310E-1,1.242880002E-1,-8.509259820E-1,-1.016500033E-2,8.600150354E-1
4.833696060E-1,1.259759963E-1,-8.834159970E-1,2.065899968E-2,8.925920511E-1
4.883810700E-1,1.347009987E-1,-9.182040095E-1,5.342699960E-2,9.295683979E-1
4.933926930E-1,1.594640017E-1,-9.625380039E-1,8.804000169E-2,9.796219775E-1
4.984043850E-1,1.759999990E-1,-9.998580217E-1,1.042150036E-1,1.020564956E0
5.034158490E-1,1.972610056E-1,-1.053907037E0,9.502699971E-2,1.076411667E0
5.084275240E-1,2.304880023E-1,-1.088772058E0,1.083989963E-1,1.118167991E0
5.134391420E-1,2.469670027E-1,-1.137938023E0,6.530400366E-2,1.166259086E0
5.184508270E-1,2.443030030E-1,-1.172678947E0,4.465100169E-2,1.198688276E0
5.234622900E-1,2.416290045E-1,-1.207342029E0,1.046300028E-2,1.231328073E0
5.284739910E-1,2.365660071E-1,-1.253875017E0,-4.446500167E-2,1.276770602E0
5.334856080E-1,2.458570004E-1,-1.293123007E0,-1.083069965E-1,1.320735848E0
5.384970700E-1,2.216439992E-1,-1.329859972E0,-1.644310057E-1,1.358194082E0
5.435087600E-1,2.141810060E-1,-1.366464019E0,-2.273640037E-1,1.401710315E0
5.485203770E-1,2.162249982E-1,-1.398152947E0,-2.780320048E-1,1.441834495E0
5.535320680E-1,1.943369955E-1,-1.420125008E0,-3.117069900E-1,1.466861668E0
5.585437600E-1,1.796849966E-1,-1.446720958E0,-3.141430020E-1,1.491299451E0
5.635552240E-1,1.626379937E-1,-1.470775962E0,-2.758269906E-1,1.505228745E0
5.685668370E-1,1.384679973E-1,-1.497061968E0,-2.133959979E-1,1.518520916E0
5.735785290E-1,1.263149977E-1,-1.516008019E0,-1.483410001E-1,1.528476642E0
5.785899930E-1,1.191169992E-1,-1.551527977E0,-1.021699980E-1,1.559444334E0
5.836016680E-1,1.025160030E-1,-1.584473014E0,-6.061600149E-2,1.588942592E0
5.886132860E-1,6.933700293E-2,-1.631592035E0,-4.989999905E-2,1.633826857E0
5.936249960E-1,3.394199908E-2,-1.680914044E0,-1.225569993E-1,1.685717741E0
5.986364600E-1,-3.601999953E-3,-1.756353021E0,-2.334070057E-1,1.771797883E0
6.036481640E-1,-3.377500176E-2,-1.824422002E0,-3.800559938E-1,1.863893492E0
6.086598560E-1,-3.742700070E-2,-1.873144031E0,-4.979659915E-1,1.938566344E0
6.136712290E-1,-5.762400106E-2,-1.897739053E0,-6.446480155E-1,2.005069850E0
6.186829190E-1,-7.994999737E-2,-1.902984977E0,-7.411429882E-1,2.043780016E0
6.236945350E-1,-1.115280017E-1,-1.893661976E0,-7.972310185E-1,2.057661651E0
6.287062360E-1,-1.284420043E-1,-1.862604976E0,-8.034960032E-1,2.032584677E0
6.337179280E-1,-1.115659997E-1,-1.807425022E0,-7.503730059E-1,1.960176480E0
6.387293970E-1,-7.761400193E-2,-1.740077019E0,-6.783670187E-1,1.869244173E0
6.437410100E-1,-3.862800077E-2,-1.665359020E0,-6.233299971E-1,1.778609871E0
6.487527790E-1,-2.098100074E-2,-1.571316004E0,-5.708519816E-1,1.671928877E0
6.537643970E-1,-1.262999978E-2,-1.486639977E0,-5.135430098E-1,1.572890447E0
6.587758420E-1,-4.158999771E-3,-1.387418985E0,-4.345510006E-1,1.453885591E0
6.637875330E-1,-4.808799922E-2,-1.314298034E0,-3.168950081E-1,1.352817143E0
6.687991500E-1,-1.085830033E-1,-1.269659996E0,-2.680209875E-1,1.302175881E0
6.738108550E-1,-1.807969958E-1,-1.239133000E0,-2.162670046E-1,1.270790920E0
6.788223190E-1,-2.673049867E-1,-1.256239057E0,-2.213889956E-1,1.303304113E0
6.838340040E-1,-3.321929872E-1,-1.297044992E0,-2.595469952E-1,1.363833764E0
6.888456220E-1,-3.588980138E-1,-1.383124948E0,-3.213979900E-1,1.464629329E0
6.938571070E-1,-4.097259939E-1,-1.457072020E0,-3.999280035E-1,1.565527601E0
6.988687970E-1,-4.608469903E-1,-1.542842984E0,-4.737429917E-1,1.678444770E0
7.038804150E-1,-4.741030037E-1,-1.638079047E0,-5.046529770E-1,1.778412565E0
7.088920950E-1,-4.495579898E-1,-1.730859995E0,-5.695670247E-1,1.876801882E0
7.139037870E-1,-4.397889972E-1,-1.818778992E0,-6.157960296E-1,1.969917798E0
7.189152420E-1,-4.472959936E-1,-1.918655992E0,-6.125929952E-1,2.063149218E0
7.239268550E-1,-4.745689929E-1,-2.006576061E0,-5.551049709E-1,2.135346517E0
7.289385480E-1,-4.834899902E-1,-2.056235075E0,-6.297870278E-1,2.204199845E0
7.339500010E-1,-4.025360048E-1,-2.050900936E0,-8.075850010E-1,2.240630139E0
7.389616920E-1,-2.697930038E-1,-2.009747982E0,-9.024220109E-1,2.219513618E0
7.439733980E-1,-1.592900008E-1,-1.901692033E0,-9.074010253E-1,2.113097847E0
7.489850150E-1,-7.082899660E-2,-1.772248030E0,-8.158569932E-1,1.952306958E0
7.539964770E-1,-4.506099969E-2,-1.614235997E0,-5.822600126E-1,1.716628985E0
7.590081720E-1,-2.699200064E-2,-1.422814012E0,-2.705669999E-1,1.448563006E0
7.640198650E-1,-3.816200048E-2,-1.262483954E0,-1.049339995E-1,1.267412016E0
7.690314920E-1,3.476180136E-1,-1.173854947E0,-7.069800049E-2,1.226283787E0
7.740429530E-1,1.520985961E0,-9.768679738E-1,2.682310045E-1,1.827461957E0
7.790546440E-1,7.296500206E-1,-8.096590042E-1,-1.451330036E-1,1.099545563E0
7.840663360E-1,1.244599968E-1,-8.410800099E-1,-3.767940104E-1,9.299890323E-1
7.890779540E-1,-3.547689915E-1,-9.123079777E-1,-4.415119886E-1,1.073824809E0
7.940894200E-1,-6.463900208E-1,-8.909540176E-1,-4.423930049E-1,1.186309695E0
7.991011100E-1,-8.799809813E-1,-8.422099948E-1,-4.211910069E-1,1.288831280E0
8.041127280E-1,-9.928349853E-1,-7.836650014E-1,-3.903839886E-1,1.323726483E0
8.091244180E-1,-9.676449895E-1,-7.375820279E-1,-3.710719943E-1,1.272029284E0
8.141361100E-1,-4.527609944E-1,-6.949939728E-1,-2.996309996E-1,8.819228289E-1
8.191475790E-1,-1.652400047E-1,-6.394709945E-1,-3.541930020E-1,7.494531970E-1
8.241591920E-1,-4.388900101E-2,-6.605150104E-1,-4.471490085E-1,7.988420114E-1
8.291708840E-1,7.404000033E-3,-7.244930267E-1,-4.705800116E-1,8.639389517E-1
8.341825760E-1,2.100200020E-2,-8.028090000E-1,-4.357979894E-1,9.137085214E-1
8.391942680E-1,3.027400002E-2,-8.646060228E-1,-3.749180138E-1,9.428804839E-1
8.442056650E-1,4.240600020E-2,-9.389420152E-1,-2.630159855E-1,9.760060375E-1
8.492173550E-1,5.948499963E-2,-1.014014006E0,-1.386349946E-1,1.025174390E0
8.542290480E-1,9.617900103E-2,-1.097444057E0,-5.704000127E-3,1.101665283E0
8.592405110E-1,1.375969946E-1,-1.161772966E0,1.292860061E-1,1.177014966E0
8.642522010E-1,1.741050035E-1,-1.221300960E0,2.187730074E-1,1.252896730E0
8.692638190E-1,2.128970027E-1,-1.264000058E0,2.917520106E-1,1.314587584E0
8.742754990E-1,2.420939952E-1,-1.296967030E0,3.436940014E-1,1.363399628E0
8.792869630E-1,2.976930141E-1,-1.315351009E0,3.843609989E-1,1.402320500E0
8.842986680E-1,3.342399895E-1,-1.299952984E0,3.732880056E-1,1.393175533E0
8.893102850E-1,3.756830096E-1,-1.269886971E0,3.177269995E-1,1.361874109E0
8.943219760E-1,3.909460008E-1,-1.215600967E0,2.558160126E-1,1.302292717E0
8.993334290E-1,3.991999924E-1,-1.156231999E0,2.042659968E-1,1.240144213E0
9.043451200E-1,4.148600101E-1,-1.089401007E0,1.557839960E-1,1.176083345E0
9.093567420E-1,4.114440084E-1,-1.000839949E0,7.661999762E-2,1.084821367E0
9.143684320E-1,3.778100014E-1,-9.306370020E-1,3.878299892E-2,1.005151604E0
9.193798960E-1,3.494749963E-1,-8.550860286E-1,-9.731999598E-3,9.237962985E-1
9.243915810E-1,3.423889875E-1,-7.696999907E-1,-4.560299963E-2,8.436515443E-1
9.294032740E-1,3.604420125E-1,-6.866689920E-1,-7.859800011E-2,7.794936784E-1
9.344149200E-1,3.634530008E-1,-5.868409872E-1,-1.114709973E-1,6.992182859E-1
9.394263810E-1,3.727219999E-1,-4.968869984E-1,-1.166199967E-1,6.319957294E-1
9.444380720E-1,3.649510145E-1,-4.024749994E-1,-1.113239974E-1,5.545884966E-1
9.494497550E-1,3.456479907E-1,-3.539150059E-1,-7.466799766E-2,5.003035826E-1
9.544613730E-1,3.151060045E-1,-3.224979937E-1,-2.360600047E-2,4.515019305E-1
9.594730620E-1,2.598249912E-1,-3.101980090E-1,4.569999874E-3,4.046637070E-1
9.644845250E-1,2.154649943E-1,-3.147270083E-1,4.558800161E-2,3.841308624E-1
9.694962160E-1,1.700949967E-1,-3.382759988E-1,7.143399864E-2,3.853125685E-1
9.745078330E-1,1.168040037E-1,-3.663800061E-1,9.670399874E-2,3.965213078E-1
9.795195230E-1,8.359199762E-2,-3.941580057E-1,9.585999697E-2,4.141706104E-1
9.845309590E-1,6.522300094E-2,-4.214699864E-1,7.682400197E-2,4.333508009E-1
9.895426490E-1,5.196399987E-2,-4.578109980E-1,4.472599924E-2,4.629163879E-1
9.945542670E-1,3.200599924E-2,-4.884800017E-1,-2.102600038E-2,4.899787635E-1
9.995659370E-1,2.405299991E-2,-5.064759851E-1,-8.009999990E-2,5.133346669E-1
1.004577401E0,5.315599963E-2,-5.238720179E-1,-1.512549967E-1,5.478553873E-1
1.009589106E0,7.627200335E-2,-5.093749762E-1,-2.579180002E-1,5.760225514E-1
1.014600723E0,7.533500344E-2,-5.071750283E-1,-2.272430062E-1,5.608397775E-1
1.019612394E0,7.919500023E-2,-4.990989864E-1,-1.005069986E-1,5.152410145E-1
1.024623857E0,1.110400036E-1,-5.262079835E-1,6.197199970E-2,5.413550157E-1
1.029635543E0,1.743810028E-1,-5.423769951E-1,1.410019994E-1,5.869097910E-1
1.034647161E0,2.473170012E-1,-5.517070293E-1,1.484739929E-1,6.225679657E-1
1.039658827E0,2.784819901E-1,-5.749229789E-1,1.122850031E-1,6.486112644E-1
1.044670520E0,3.108310103E-1,-5.757920146E-1,3.585899994E-2,6.553153660E-1
1.049682212E0,3.095169961E-1,-5.851420164E-1,-4.960700125E-2,6.638168459E-1
1.054693909E0,3.055759966E-1,-5.722990036E-1,-9.994199872E-2,6.564230666E-1
1.059705296E0,2.805159986E-1,-5.613350272E-1,-1.303170025E-1,6.409124429E-1
1.064716986E0,2.673819959E-1,-5.213689804E-1,-1.626839936E-1,6.080993564E-1
1.069728450E0,2.128210068E-1,-4.916400015E-1,-8.331599832E-2,5.421662361E-1
1.074740140E0,1.641400009E-1,-4.499729872E-1,-7.914199680E-2,4.854699628E-1
1.079751832E0,1.004920006E-1,-4.246479869E-1,-9.907799959E-2,4.474829661E-1
1.084763535E0,1.083599962E-2,-4.130800068E-1,-1.167830005E-1,4.294074757E-1
1.089775152E0,-8.769500256E-2,-3.987089992E-1,-1.114069968E-1,4.231675772E-1
1.094786614E0,-1.693319976E-1,-3.912679851E-1,-9.508199990E-2,4.368117996E-1
1.099798308E0,-2.461989969E-1,-3.955459893E-1,-7.248900086E-2,4.715137654E-1
1.104809925E0,-3.137750030E-1,-3.925270140E-1,-5.098100007E-2,5.051052084E-1
1.109821616E0,-3.213309944E-1,-4.156680107E-1,-5.097499862E-2,5.278559970E-1
1.114833322E0,-2.986130118E-1,-4.314660132E-1,-6.954299659E-2,5.293098145E-1
1.119844785E0,-2.674849927E-1,-4.282000065E-1,-7.841499895E-2,5.109328517E-1
1.124856394E0,-2.073149979E-1,-4.180690050E-1,-8.484899998E-2,4.743000676E-1
1.129868086E0,-1.190539971E-1,-3.940559924E-1,-1.007080004E-1,4.237877779E-1
1.134879778E0,5.826999899E-3,-3.682770133E-1,-1.162350029E-1,3.862285442E-1
1.139891237E0,5.029699951E-2,-3.778589964E-1,-1.706680059E-1,4.176538969E-1
1.144902927E0,1.329510063E-1,-3.949500024E-1,-1.602769941E-1,4.464864940E-1
1.149914620E0,2.570590079E-1,-3.911750019E-1,-1.568949968E-1,4.936732276E-1
1.154926237E0,3.633829951E-1,-3.971450031E-1,-1.812179983E-1,5.679888357E-1
1.159937927E0,4.061999917E-1,-3.957709968E-1,-2.072370052E-1,6.038048456E-1
1.164949391E0,4.199689925E-1,-3.893069923E-1,-2.351109982E-1,6.190404432E-1
1.169961086E0,3.964209855E-1,-4.059819877E-1,-2.691729963E-1,6.280327014E-1
1.174972704E0,3.413510025E-1,-4.219569862E-1,-2.813970149E-1,6.113529954E-1
1.179984165E0,2.740330100E-1,-4.319869876E-1,-3.378210068E-1,6.130496559E-1
1.184995870E0,2.039429992E-1,-4.380750060E-1,-4.327920079E-1,6.486997610E-1
1.190007562E0,1.288129985E-1,-4.118080139E-1,-5.240389705E-1,6.788191744E-1
1.195019179E0,3.258800134E-2,-4.009799957E-1,-6.093509793E-1,7.301750138E-1
1.200030875E0,-5.159699917E-2,-3.563500047E-1,-6.405389905E-1,7.348045825E-1
1.205042338E0,-1.380050033E-1,-3.330689967E-1,-6.537359953E-1,7.465595013E-1
1.210054028E0,-2.102629989E-1,-3.051219881E-1,-6.541969776E-1,7.518534710E-1
1.215065651E0,-3.126310110E-1,-2.992179990E-1,-6.025350094E-1,7.418342116E-1
1.220077341E0,-4.184240103E-1,-3.130240142E-1,-5.324640274E-1,7.460433140E-1
1.225089033E0,-5.111910105E-1,-3.255200088E-1,-4.233410060E-1,7.392544438E-1
1.230100497E0,-5.704900026E-1,-3.250029981E-1,-3.134439886E-1,7.275526963E-1
1.235112187E0,-5.973770022E-1,-3.233329952E-1,-2.283779979E-1,7.166310198E-1
1.240123904E0,-6.254100204E-1,-3.275069892E-1,-1.605519950E-1,7.239996303E-1
1.245135521E0,-6.032459736E-1,-3.494580090E-1,-1.021189988E-1,7.045955539E-1
1.250147221E0,-6.022279859E-1,-3.741210103E-1,-9.252399951E-2,7.149865508E-1
1.255158685E0,-5.755130053E-1,-4.035060108E-1,-1.233730018E-1,7.136197990E-1
1.260170284E0,-4.729230106E-1,-4.188019931E-1,-1.678629965E-1,6.536277756E-1
1.265181977E0,-3.522689939E-1,-4.490750134E-1,-1.857679933E-1,6.002262565E-1
1.270193669E0,-2.166409940E-1,-4.634130001E-1,-2.177989930E-1,5.559868076E-1
1.275205133E0,-7.802200317E-2,-4.836069942E-1,-2.308969945E-1,5.415501637E-1
1.280216823E0,5.654399842E-2,-5.069789886E-1,-2.700169981E-1,5.771777005E-1
1.285228440E0,1.732680053E-1,-5.385270119E-1,-2.807619870E-1,6.315539862E-1
1.290240131E0,2.703259885E-1,-5.778340101E-1,-3.080829978E-1,7.084373062E-1
1.295251828E0,3.436059952E-1,-6.216869950E-1,-3.794429898E-1,8.053178144E-1
1.300263291E0,4.191730022E-1,-6.510220170E-1,-4.494229853E-1,8.952746462E-1
1.305274905E0,5.106790066E-1,-6.664199829E-1,-4.949190021E-1,9.746042581E-1
1.310286582E0,5.785520077E-1,-7.014459968E-1,-5.069779754E-1,1.041045426E0
1.315298274E0,6.094740033E-1,-6.973599792E-1,-4.522210062E-1,1.030666454E0
1.320309967E0,6.231120229E-1,-6.764330268E-1,-3.441829979E-1,9.819837926E-1
1.325321435E0,6.105509996E-1,-6.268410087E-1,-2.336339951E-1,9.056969785E-1
1.330333126E0,5.910260081E-1,-5.580639839E-1,-1.323930025E-1,8.235745622E-1
1.335344743E0,5.436059833E-1,-4.929589927E-1,-8.898500353E-2,7.392119888E-1
1.340356414E0,4.759309888E-1,-4.115140140E-1,-1.163140014E-1,6.398304750E-1
1.345367878E0,3.864159882E-1,-3.277600110E-1,-1.590819955E-1,5.310847597E-1
1.350379568E0,2.897219956E-1,-2.635830045E-1,-1.702069938E-1,4.270658681E-1
1.355391181E0,1.882099956E-1,-1.996490061E-1,-1.899800003E-1,3.337291246E-1
1.360402871E0,7.015900314E-2,-1.354420036E-1,-2.462520003E-1,2.896668254E-1
1.365414340E0,-5.688500032E-2,-6.898400187E-2,-2.705599964E-1,2.849515878E-1
1.370426030E0,-1.299570054E-1,5.764000118E-3,-2.213039994E-1,2.567050975E-1
1.375437722E0,-1.322360039E-1,1.004159972E-1,-1.724089980E-1,2.393628956E-1
1.380449359E0,-9.373000264E-2,1.957609951E-1,-1.282400042E-1,2.520975591E-1
1.385461049E0,-4.368999973E-2,2.994140089E-1,-1.284710020E-1,3.287284033E-1
1.390472512E0,-3.223000094E-3,3.825959861E-1,-1.064459980E-1,3.971408148E-1
1.395484203E0,4.171400145E-2,4.626530111E-1,-1.303099990E-1,4.824609439E-1
1.400495815E0,1.555179954E-1,5.986940265E-1,-3.512330055E-1,7.113262320E-1
1.405507505E0,2.645950019E-1,7.717149854E-1,-6.136519909E-1,1.020844405E0
1.410519198E0,4.027569890E-1,9.060059786E-1,-7.219449878E-1,1.226484648E0
1.415530661E0,5.579159856E-1,1.047096968E0,-8.192840219E-1,1.441842091E0
1.420542352E0,6.397770047E-1,1.130125999E0,-6.575750113E-1,1.455645659E0
1.425554044E0,6.052629948E-1,1.198297977E0,-4.064759910E-1,1.402670334E0
1.430565661E0,5.116630197E-1,1.251901031E0,-1.491329968E-1,1.360623345E0
1.435577118E0,4.159370065E-1,1.319823027E0,8.868499845E-2,1.386651162E0
1.440588808E0,3.609490097E-1,1.402261019E0,2.883059978E-1,1.476394426E0
1.445600501E0,3.416090012E-1,1.494565010E0,3.496679962E-1,1.572478612E0
1.450612183E0,3.103800118E-1,1.563416004E0,2.586520016E-1,1.614777450E0
1.455623800E0,2.507230043E-1,1.570572019E0,1.038189977E-1,1.593843429E0
1.460635271E0,1.842219979E-1,1.516031027E0,-3.587400168E-2,1.527604256E0
1.465646961E0,8.457499743E-2,1.437922955E0,-1.439969987E-1,1.447587817E0
1.470658644E0,-6.979399920E-2,1.338395953E0,-2.593370080E-1,1.365075314E0
1.475670262E0,-2.310409993E-1,1.236461997E0,-2.697060108E-1,1.286452310E0
1.480681952E0,-3.944939971E-1,1.155953050E0,-2.350849956E-1,1.243831951E0
1.485693406E0,-4.789850116E-1,1.094473958E0,-1.290909946E-1,1.201650686E0
1.490705096E0,-5.131700039E-1,1.071375012E0,1.519600023E-2,1.188031476E0
1.495716699E0,-5.041030049E-1,1.067739010E0,2.173860073E-1,1.200601145E0
1.500728467E0,-4.043380022E-1,1.117830992E0,4.378679991E-1,1.266792694E0
1.505740093E0,-2.627960145E-1,1.194424987E0,6.399599910E-1,1.380312133E0
1.510751555E0,-1.355589926E-1,1.350687027E0,8.190940022E-1,1.585448413E0
1.515763235E0,-7.179799676E-2,1.546120048E0,9.900839925E-1,1.837364544E0
1.520774927E0,-4.954800010E-2,1.785559058E0,1.157647967E0,2.128573459E0
1.525786545E0,-6.143299863E-2,2.078655005E0,1.357782960E0,2.483577099E0
1.530798026E0,-4.048499838E-2,2.432513952E0,1.537736058E0,2.878088836E0
1.535809717E0,-6.836199760E-2,2.772881985E0,1.604132056E0,3.204182816E0
1.540821409E0,-9.976500273E-2,3.154700994E0,1.573596954E0,3.526797243E0
1.545833026E0,-1.156969965E-1,3.515547991E0,1.409834027E0,3.789471659E0
1.550844717E0,-1.114770025E-1,3.862406015E0,1.165042043E0,4.035830808E0
1.555856409E0,-1.135900021E-1,4.168769836E0,8.484550118E-1,4.255751467E0
1.560867872E0,-1.556050032E-1,4.412806988E0,5.479040146E-1,4.449413134E0
1.565879563E0,-2.113700062E-1,4.548756123E0,2.890950143E-1,4.562831957E0
1.570891180E0,-2.930189967E-1,4.593154907E0,1.194190010E-1,4.604040946E0
1.575902865E0,-3.698300123E-1,4.564898014E0,9.825299680E-2,4.580908400E0
1.580914329E0,-3.585090041E-1,4.506962776E0,2.160039991E-1,4.526356139E0
1.585926004E0,-3.717670143E-1,4.378654957E0,4.153029919E-1,4.413989864E0
1.590937697E0,-3.284699917E-1,4.192020893E0,7.131710052E-1,4.264920232E0
1.595949376E0,-2.312439978E-1,3.992634058E0,1.076465011E0,4.141663606E0
1.600960993E0,-7.545600086E-2,3.763945103E0,1.491400957E0,4.049352190E0
1.605972693E0,9.587600082E-2,3.537262917E0,1.838770032E0,3.987793422E0
1.610984156E0,2.516900003E-1,3.288820982E0,2.145299911E0,3.934717654E0
1.615995770E0,3.728939891E-1,3.052253008E0,2.437616110E0,3.923935607E0
1.621007471E0,5.265089869E-1,2.822910070E0,2.627538919E0,3.892299289E0
1.626019163E0,6.049829721E-1,2.574537992E0,2.722379923E0,3.795471343E0
1.631030856E0,7.904459834E-1,2.517771006E0,2.848949909E0,3.883360822E0
1.636042334E0,8.607749939E-1,2.492302895E0,2.904206038E0,3.922616476E0
1.641054024E0,8.450080156E-1,2.469418049E0,2.911905050E0,3.910403441E0
1.646065642E0,7.143499851E-1,2.480098009E0,2.988991976E0,3.949082813E0
1.651077332E0,6.122320294E-1,2.526695013E0,3.044533014E0,4.003523076E0
1.656089011E0,5.145140290E-1,2.534997940E0,3.037863016E0,3.989931196E0
1.661100474E0,3.706380129E-1,2.502489090E0,2.909008980E0,3.855146875E0
1.666112168E0,3.145369887E-1,2.587064981E0,2.770373106E0,3.803525454E0
1.671123786E0,1.741210073E-1,2.633205891E0,2.552484035E0,3.671412009E0
1.676135247E0,9.059300274E-2,2.636023045E0,2.305286884E0,3.503023295E0
1.681146938E0,-4.141199961E-2,2.612124920E0,2.176747084E0,3.400461648E0
1.686158625E0,-2.101320028E-1,2.532654047E0,2.271845102E0,3.408778689E0
1.691170317E0,-3.465780020E-1,2.462236881E0,2.507091045E0,3.531038414E0
1.696181935E0,-2.427619994E-1,2.408132076E0,2.679402113E0,3.610710341E0
1.701193616E0,-1.616410017E-1,2.337023973E0,2.889636040E0,3.719920067E0
1.706205080E0,-1.557620019E-1,2.253784895E0,2.965679884E0,3.728145025E0
1.711216770E0,-7.167600095E-2,2.124974966E0,3.094173908E0,3.754273329E0
1.716228401E0,6.883000024E-3,1.986605048E0,3.196469069E0,3.763517171E0
1.721240092E0,9.926699847E-2,1.869786024E0,3.270062923E0,3.768191242E0
1.726251784E0,1.936530024E-1,1.764963984E0,3.295779943E0,3.743629895E0
1.731263247E0,2.614920139E-1,1.657753944E0,3.247066975E0,3.655129293E0
1.736274938E0,3.243899941E-1,1.536167026E0,3.128613949E0,3.500466146E0
1.741286630E0,3.741480112E-1,1.388849020E0,2.862193108E0,3.203285457E0
1.746298247E0,4.181619883E-1,1.246448994E0,2.695183039E0,2.998750766E0
1.751309938E0,4.170550108E-1,1.108893037E0,2.543200970E0,2.805610419E0
1.756321401E0,3.699029982E-1,9.690769911E-1,2.396451950E0,2.611306262E0
1.761333092E0,3.151780069E-1,8.411629796E-1,2.261746883E0,2.433596371E0
1.766344709E0,2.576070130E-1,7.347030044E-1,2.110831976E0,2.249835885E0
1.771356399E0,2.089270055E-1,6.400020123E-1,1.955852032E0,2.068480176E0
1.776368092E0,1.667159945E-1,5.569139719E-1,1.799144030E0,1.890731772E0
1.781379555E0,8.660499752E-2,4.685660005E-1,1.680390954E0,1.746644864E0
1.786391256E0,1.166999992E-2,3.863849938E-1,1.645077944E0,1.689884905E0
1.791402873E0,-3.290599957E-2,3.506880105E-1,1.649270058E0,1.686462750E0
1.796414563E0,-5.521199852E-2,3.397380114E-1,1.670977950E0,1.706059082E0
1.801426031E0,-3.479700163E-2,3.200359941E-1,1.672781944E0,1.703476828E0
1.806437721E0,-8.180000004E-4,3.106200099E-1,1.692687988E0,1.720952668E0
1.811449409E0,5.338200182E-2,2.971880138E-1,1.695526004E0,1.722201726E0
1.816461102E0,6.227299944E-2,2.776310146E-1,1.691161990E0,1.714930256E0
1.821472703E0,4.587300122E-2,2.545039952E-1,1.682242036E0,1.702003197E0
1.826484394E0,1.647000015E-2,2.303790003E-1,1.636507034E0,1.652725330E0
1.831495857E0,4.602000117E-3,1.978330016E-1,1.622375011E0,1.634398896E0
1.836507547E0,-5.532399938E-2,1.476369947E-1,1.557654023E0,1.565612814E0
1.841519240E0,-1.085949987E-1,1.203769967E-1,1.478553057E0,1.487414749E0
1.846530857E0,-1.042400002E-1,8.691299707E-2,1.434080005E0,1.440487871E0
1.851542547E0,-1.251700073E-1,4.495399818E-2,1.383556962E0,1.389934624E0
1.856554006E0,-1.728110015E-1,-1.734299958E-2,1.324692965E0,1.336029892E0
1.861565696E0,-1.952079982E-1,-9.054099768E-2,1.257676005E0,1.275951711E0
1.866577399E0,-2.116869986E-1,-1.627169997E-1,1.166458964E0,1.196626392E0
1.871589091E0,-2.031169981E-1,-3.416590095E-1,1.123569965E0,1.191804036E0
1.876600718E0,-8.784200251E-2,-3.743799925E-1,9.793149829E-1,1.052109515E0
1.881612409E0,-6.548500061E-2,-4.996680021E-1,8.294919729E-1,9.705737122E-1
1.886623872E0,1.069299970E-2,-6.317300200E-1,7.346339822E-1,9.689603946E-1
1.891635476E0,7.170400023E-2,-7.681649923E-1,6.512330174E-1,1.009615453E0
1.896647168E0,1.527709961E-1,-8.899700046E-1,5.861589909E-1,1.076553737E0
1.901658631E0,2.109690011E-1,-1.011523962E0,5.597169995E-1,1.175147550E0
1.906670553E0,2.531149983E-1,-1.123165011E0,5.456560254E-1,1.274090791E0
1.911682016E0,2.814829946E-1,-1.234490037E0,5.606889725E-1,1.384763681E0
1.916693706E0,2.912310064E-1,-1.309630990E0,5.763599873E-1,1.460184805E0
1.921705338E0,3.086189926E-1,-1.374933958E0,6.143749952E-1,1.537252649E0
1.926717028E0,3.000200093E-1,-1.387356997E0,6.604080200E-1,1.565538308E0
1.931728478E0,3.011499941E-1,-1.370882034E0,7.649580240E-1,1.598489803E0
1.936740168E0,2.905350029E-1,-1.320737958E0,8.755660057E-1,1.611016813E0
1.941751860E0,2.585529983E-1,-1.244143009E0,9.566040039E-1,1.590544781E0
1.946763478E0,2.410459965E-1,-1.153097034E0,9.866729975E-1,1.536639042E0
1.951775168E0,1.914470047E-1,-1.050359964E0,9.004970193E-1,1.396711456E0
1.956786879E0,1.382790059E-1,-9.498209953E-1,7.545340061E-1,1.220902360E0
1.961798343E0,8.159799874E-2,-8.468930125E-1,5.783450007E-1,1.028770600E0
1.966810033E0,4.020199925E-2,-7.704970241E-1,3.888559937E-1,8.639970189E-1
1.971821665E0,2.756500058E-2,-7.088770270E-1,2.068579942E-1,7.389564930E-1
1.976833355E0,3.429000033E-3,-6.667280197E-1,5.025599897E-2,6.686282044E-1
1.981844819E0,-3.766000038E-3,-6.414830089E-1,-2.648700029E-2,6.420406487E-1
1.986856528E0,-2.225700021E-2,-6.473299861E-1,-7.012300193E-2,6.514972911E-1
1.991868145E0,-1.907699928E-2,-6.626740098E-1,-7.027000189E-2,6.666623196E-1
1.996879822E0,-2.501700073E-2,-6.969900131E-1,-5.852499977E-2,6.998900659E-1
2.001891514E0,-2.815099992E-2,-7.334169745E-1,-4.827999976E-3,7.339729198E-1
2.006903192E0,-9.679999785E-4,-7.624549866E-1,8.497399837E-2,7.671760710E-1
2.011914656E0,3.476599976E-2,-7.938159704E-1,1.449880004E-1,8.076967190E-1
2.016926269E0,9.480399638E-2,-7.870699763E-1,1.950969994E-1,8.164127538E-1
2.021937951E0,1.738560051E-1,-7.806980014E-1,2.147279978E-1,8.281445483E-1
2.026949644E0,2.341520041E-1,-7.580969930E-1,1.841239929E-1,8.145181745E-1
2.031961336E0,2.854729891E-1,-7.240049839E-1,1.604589969E-1,7.946226362E-1
2.036972809E0,3.258709908E-1,-6.878349781E-1,1.572899967E-1,7.772058947E-1
2.041984422E0,3.671169877E-1,-6.280109882E-1,1.787900031E-1,7.490918163E-1
2.046996129E0,4.278199971E-1,-5.660210252E-1,2.287649959E-1,7.454818403E-1
2.052007822E0,4.633919895E-1,-4.993689954E-1,2.763890028E-1,7.351818893E-1
2.057019285E0,4.792309999E-1,-4.114089906E-1,2.824859917E-1,6.918945327E-1
2.062030985E0,4.481590092E-1,-3.259629905E-1,2.622810006E-1,6.130984358E-1
2.067042602E0,4.342240095E-1,-2.648690045E-1,1.931889951E-1,5.440846146E-1
2.072054292E0,4.322389960E-1,-2.091699988E-1,9.977900237E-2,4.904472320E-1
2.077065976E0,4.373289943E-1,-1.708929986E-1,-8.169000037E-3,4.696038743E-1
2.082077668E0,3.982979953E-1,-1.659930050E-1,-5.460000248E-4,4.315034982E-1
2.087089131E0,3.168390095E-1,-2.276030034E-1,1.905000024E-2,3.905803216E-1
2.092100822E0,2.498340011E-1,-2.013150007E-1,-1.602980047E-1,3.586644782E-1
2.097112514E0,3.451420069E-1,-1.889840066E-1,-4.633109868E-1,6.078610286E-1
2.102124155E0,4.886290133E-1,-1.831499934E-1,-6.660789847E-1,8.461462324E-1
2.107135617E0,6.625620127E-1,-1.900700033E-1,-6.703140140E-1,9.614758989E-1
2.112147288E0,7.382389903E-1,-1.891860068E-1,-4.873340130E-1,9.045897369E-1
2.117158981E0,6.836180091E-1,-2.177480012E-1,-2.064689994E-1,7.465770035E-1
2.122170588E0,5.604760051E-1,-2.347670048E-1,1.051559970E-1,6.166901025E-1
2.127182278E0,4.310579896E-1,-2.523519993E-1,4.103609920E-1,6.464430877E-1
2.132193771E0,3.445059955E-1,-2.714810073E-1,5.520910025E-1,7.051175741E-1
2.137205692E0,2.811880112E-1,-2.957209945E-1,4.682210088E-1,6.210865618E-1
2.142217156E0,2.451629937E-1,-3.065960109E-1,2.818599939E-1,4.832712112E-1
2.147228745E0,2.404499948E-1,-3.353649974E-1,8.638600260E-2,4.216022093E-1
2.152240437E0,2.268559933E-1,-3.721460104E-1,-6.480500102E-2,4.406313458E-1
2.157252125E0,1.838089973E-1,-3.996210098E-1,-1.409219950E-1,4.618892807E-1
2.162263588E0,1.214440018E-1,-4.221819937E-1,-1.655199975E-1,4.694498386E-1
2.167275278E0,6.815300137E-2,-4.443509877E-1,-1.334639937E-1,4.689405820E-1
2.172286896E0,2.801200002E-2,-4.326370060E-1,-8.358900249E-2,4.415275444E-1
2.177298586E0,1.665800065E-2,-4.087429941E-1,-2.788200043E-2,4.100313770E-1
2.182310250E0,1.222299971E-2,-3.634060025E-1,-1.964399964E-2,3.641417459E-1
2.187321942E0,-3.911999986E-3,-3.277130127E-1,-2.262300067E-2,3.285162440E-1
2.192333405E0,-3.355599940E-2,-3.065359890E-1,-5.484399945E-2,3.132062930E-1
2.197345029E0,-8.081299812E-2,-3.093599975E-1,-9.700799733E-2,3.341330577E-1
2.202356721E0,-1.312309951E-1,-2.882640064E-1,-1.278779954E-1,3.415706269E-1
2.207368417E0,-1.660870016E-1,-2.624549866E-1,-1.593569964E-1,3.490876170E-1
2.212380110E0,-1.975120008E-1,-2.463019937E-1,-1.938340068E-1,3.704690065E-1
2.217391573E0,-1.884289980E-1,-2.206040025E-1,-1.754930019E-1,3.390713891E-1
2.222403274E0,-1.794809997E-1,-1.974360049E-1,-1.848410070E-1,3.245929807E-1
2.227414891E0,-1.590850055E-1,-1.624040008E-1,-1.699000001E-1,2.838117483E-1
2.232426586E0,-1.205620021E-1,-1.274919957E-1,-1.430149972E-1,2.263684933E-1
2.237438050E0,-1.061030030E-1,-1.118389964E-1,-1.463620067E-1,2.125738586E-1
2.242449740E0,-8.705300093E-2,-1.035280004E-1,-1.604609936E-1,2.098666298E-1
2.247461418E0,-8.445200324E-2,-9.279499948E-2,-1.478639990E-1,1.939247663E-1
2.252473110E0,-7.918299735E-2,-1.060379967E-1,-1.582249999E-1,2.062744638E-1
2.257484496E0,-8.985300362E-2,-1.144229993E-1,-1.630710065E-1,2.185368120E-1
2.262496187E0,-1.181799993E-1,-1.418060064E-1,-1.860219985E-1,2.620680057E-1
2.267507879E0,-1.497890055E-1,-1.737149954E-1,-1.824339926E-1,2.930798653E-1
2.272519566E0,-1.941609979E-1,-1.815519929E-1,-2.157589942E-1,3.423617426E-1
2.277531259E0,-2.208269984E-1,-1.772930026E-1,-2.292300016E-1,3.643401784E-1
2.282542951E0,-2.442400008E-1,-1.871780008E-1,-2.259300053E-1,3.817501137E-1
2.287554568E0,-2.784450054E-1,-1.966969967E-1,-1.947540045E-1,3.926199840E-1
2.292566026E0,-2.767440081E-1,-1.990379989E-1,-2.131700069E-1,4.020507715E-1
2.297577716E0,-2.773399949E-1,-2.228599936E-1,-2.240300030E-1,4.204443979E-1
2.302589338E0,-2.499440014E-1,-2.563079894E-1,-2.252350003E-1,4.229616940E-1
2.307601028E0,-2.210199982E-1,-2.850629985E-1,-2.309979945E-1,4.283349463E-1
2.312612507E0,-1.882939935E-1,-3.209930062E-1,-1.969790012E-1,4.210604053E-1
2.317624197E0,-1.821410060E-1,-3.590010107E-1,-1.011629999E-1,4.150795397E-1
2.322635889E0,-1.693159938E-1,-3.751739860E-1,1.300899964E-2,4.118162935E-1
2.327647478E0,-1.500499994E-1,-3.793019950E-1,8.722399920E-2,4.171247197E-1
2.332659168E0,-1.453900039E-1,-3.833589852E-1,1.343410015E-1,4.314508888E-1
2.337670656E0,-1.246299967E-1,-3.995929956E-1,1.133640036E-1,4.336572328E-1
2.342682346E0,-9.747800231E-2,-4.042269886E-1,4.960900173E-2,4.187630264E-1
2.347693963E0,-8.257299662E-2,-4.211100042E-1,-2.555000037E-2,4.298892159E-1
2.352705654E0,-7.474099845E-2,-4.622350037E-1,-1.467510015E-1,4.906967209E-1
2.357717346E0,-6.449600309E-2,-5.036860108E-1,-2.825160027E-1,5.810977746E-1
2.362729023E0,-6.821099669E-2,-5.404760242E-1,-3.885430098E-1,6.691283458E-1
2.367740716E0,-5.999499932E-2,-5.606610179E-1,-4.960379899E-1,7.509952492E-1
2.372752179E0,-7.051499933E-2,-5.807369947E-1,-5.518890023E-1,8.042445481E-1
2.377763792E0,-1.131640002E-1,-5.787469745E-1,-5.302709937E-1,7.930583069E-1
2.382775485E0,-1.474069953E-1,-6.024829745E-1,-4.662379920E-1,7.759461464E-1
2.387787153E0,-1.455129981E-1,-6.473420262E-1,-3.865790069E-1,7.678991211E-1
2.392798617E0,-2.065210044E-1,-6.149880290E-1,-3.124600053E-1,7.200642027E-1
2.397810307E0,-2.151480019E-1,-5.633130074E-1,-2.643100023E-1,6.583843743E-1
2.402821924E0,-1.797270030E-1,-5.573040247E-1,-2.735309899E-1,6.463039331E-1
2.407833615E0,-1.523620039E-1,-5.729669929E-1,-3.082520068E-1,6.682250031E-1
2.412845308E0,-1.352369934E-1,-5.575810075E-1,-3.188180029E-1,6.563768303E-1
2.417856772E0,-1.301970035E-1,-5.732839704E-1,-3.430779874E-1,6.806675222E-1
2.422868462E0,-1.554940045E-1,-5.720260143E-1,-3.738420010E-1,7.008209387E-1
2.427880070E0,-1.825139970E-1,-5.657889843E-1,-4.038800001E-1,7.187124518E-1
2.432891838E0,-1.482850015E-1,-5.907530189E-1,-4.076279998E-1,7.328970986E-1
2.437903483E0,-2.153210044E-1,-5.458710194E-1,-3.857550025E-1,7.022429969E-1
2.442914944E0,-1.972460002E-1,-5.058770180E-1,-3.761520088E-1,6.605360517E-1
2.447926625E0,-1.498530060E-1,-4.685649872E-1,-3.855490088E-1,6.250256865E-1
2.452938317E0,-1.247240007E-1,-4.648430049E-1,-4.204109907E-1,6.390465528E-1
2.457950014E0,-9.805099666E-2,-4.612210095E-1,-4.453479946E-1,6.485935968E-1
2.462961632E0,-6.754499674E-2,-4.601059854E-1,-4.628930092E-1,6.561476833E-1
2.467973322E0,-3.107899986E-2,-4.567869902E-1,-5.011979938E-1,6.788370110E-1
2.472984786E0,-3.518199921E-2,-4.557360113E-1,-5.063959956E-1,6.821803203E-1
2.477996476E0,-2.076999983E-3,-4.667890072E-1,-5.235999823E-1,7.014650616E-1
2.483008163E0,-1.194499992E-2,-4.561589956E-1,-4.548789859E-1,6.443125050E-1
2.488019781E0,-6.613499671E-2,-4.236609936E-1,-4.349330068E-1,6.107611609E-1
2.493031471E0,1.901679933E-1,-5.171769857E-1,-3.643830121E-1,6.606140172E-1
2.498042944E0,6.003959775E-1,-2.976439893E-1,-2.052530050E-1,7.008538152E-1
2.503054634E0,5.523400009E-2,-3.828299940E-1,-3.565559983E-1,5.260625238E-1
2.508066223E0,-6.296300143E-2,-3.667120039E-1,-2.244459987E-1,4.345319778E-1
2.513077914E0,-1.993439943E-1,-3.282780051E-1,-1.605989933E-1,4.162889782E-1
2.518089401E0,-3.008719981E-1,-2.296810001E-1,-1.375370026E-1,4.027328496E-1
2.523101091E0,-4.014140069E-1,-1.116650030E-1,-1.610340029E-1,4.466925430E-1
2.528112784E0,-4.898740053E-1,3.276199847E-2,-1.836500019E-1,5.241919618E-1
2.533124401E0,-3.364019990E-1,1.685390025E-1,-1.728859991E-1,4.140788198E-1
2.538136092E0,-4.242999852E-2,3.068839908E-1,-1.786669940E-1,3.576310715E-1
2.543147555E0,6.332200021E-2,4.037449956E-1,-2.750520110E-1,4.926188242E-1
2.548159476E0,1.612389982E-1,4.401969910E-1,-3.363009989E-1,5.769486695E-1
2.553170940E0,2.144860029E-1,4.572480023E-1,-3.798449934E-1,6.319511057E-1
2.558182620E0,2.409069985E-1,4.360060096E-1,-4.224629998E-1,6.531557307E-1
2.563194237E0,2.343440056E-1,4.006229937E-1,-4.595380127E-1,6.531394041E-1
2.568205957E0,2.191680074E-1,3.296419978E-1,-4.632740021E-1,6.093613568E-1
2.573217649E0,2.003799975E-1,2.613680065E-1,-4.416159987E-1,5.508993271E-1
2.578229113E0,1.873389930E-1,1.909749955E-1,-4.348059893E-1,5.105130708E-1
2.583240803E0,1.706970036E-1,1.113229990E-1,-4.283669889E-1,4.743717470E-1
2.588252415E0,1.597930044E-1,3.192999959E-2,-4.175640047E-1,4.482332285E-1
2.593264106E0,1.498800069E-1,-4.719899967E-2,-4.072349966E-1,4.364998333E-1
2.598275793E0,1.431760043E-1,-1.117630005E-1,-3.880990148E-1,4.284987535E-1
2.603287257E0,1.280039996E-1,-1.712729931E-1,-3.766619861E-1,4.331208998E-1
2.608298947E0,1.230010018E-1,-2.162739933E-1,-3.611400127E-1,4.385496499E-1
2.613310574E0,1.115439981E-1,-2.395759970E-1,-3.393419981E-1,4.301066304E-1
2.618322265E0,1.121819988E-1,-2.556860149E-1,-3.091939986E-1,4.166066104E-1
2.623333957E0,1.129290015E-1,-2.597750127E-1,-3.056930006E-1,4.167543967E-1
2.628345391E0,1.205430031E-1,-2.495180070E-1,-3.210380077E-1,4.240934494E-1
2.633357005E0,1.279119998E-1,-2.296900004E-1,-3.267849982E-1,4.194131746E-1
2.638368774E0,1.209900007E-1,-2.074310035E-1,-3.280290067E-1,4.065331852E-1
2.643380391E0,1.118900031E-1,-1.874659956E-1,-3.410699964E-1,4.049587815E-1
2.648392082E0,1.355140060E-1,-1.771630049E-1,-3.585140109E-1,4.222358016E-1
2.653403774E0,1.420499980E-1,-1.597319990E-1,-3.404189944E-1,4.019671693E-1
2.658415238E0,1.135509983E-1,-1.589989960E-1,-2.459180057E-1,3.140862548E-1
2.663426851E0,4.386600107E-2,-1.341380030E-1,-1.283939928E-1,1.907937297E-1
2.668438543E0,-7.987000048E-3,-9.012000263E-2,-1.182300039E-2,9.124248123E-2
2.673450007E0,-7.053100318E-2,-3.166500106E-2,8.761200309E-2,1.168467278E-1
2.678461706E0,-1.111069992E-1,3.395399824E-2,1.495220065E-1,1.893527652E-1
2.683473399E0,-8.394999802E-2,9.926199913E-2,1.472920030E-1,1.964573256E-1
2.688485096E0,-4.185099900E-2,1.524370015E-1,7.362599671E-2,1.743827197E-1
2.693496713E0,-6.095999852E-3,1.936469972E-1,-5.324900150E-2,2.009272926E-1
2.698508404E0,5.401499942E-2,2.037010044E-1,-1.900729984E-1,2.837947570E-1
2.703519896E0,8.448299766E-2,2.067440003E-1,-3.299860060E-1,3.984610680E-1
2.708531586E0,1.050719991E-1,1.621499956E-1,-4.336580038E-1,4.747546844E-1
2.713543279E0,1.137899980E-1,1.130060032E-1,-5.116410255E-1,5.361856576E-1
2.718554896E0,1.041110009E-1,5.931799859E-2,-5.416839719E-1,5.547785602E-1
2.723566587E0,7.425399870E-2,5.863999948E-3,-5.252940059E-1,5.305486174E-1
2.728578279E0,4.575899988E-2,-5.705700070E-2,-4.708639979E-1,4.765105371E-1
2.733589742E0,1.626900025E-2,-1.079569981E-1,-4.051089883E-1,4.195624938E-1
2.738601433E0,4.339000210E-3,-1.518159956E-1,-3.142009974E-1,3.489830801E-1
2.743613125E0,7.058999967E-3,-1.816080064E-1,-2.128320038E-1,2.798727556E-1
2.748624742E0,8.490000037E-4,-2.163249999E-1,-1.358889937E-1,2.554663285E-1
2.753636433E0,2.209000057E-3,-2.487599999E-1,-8.010900021E-2,2.613500892E-1
2.758647920E0,-5.322000012E-3,-2.931450009E-1,-4.239699990E-2,2.962428410E-1
2.763659611E0,-1.449699979E-2,-3.326559961E-1,-1.740200073E-2,3.334261603E-1
2.768671288E0,-1.376899984E-2,-3.840270042E-1,-2.073800005E-2,3.848329378E-1
2.773682905E0,-3.831300139E-2,-4.302969873E-1,-3.754299879E-2,4.336275592E-1
2.778694596E0,-5.028399825E-2,-4.691579938E-1,-5.341399834E-2,4.748586725E-1
2.783706078E0,-3.869799897E-2,-5.031909943E-1,-7.543800026E-2,5.102838462E-1
2.788717769E0,-2.521000057E-2,-5.204640031E-1,-9.169100225E-2,5.290799207E-1
2.793729391E0,-2.144400030E-2,-5.305809975E-1,-8.165699989E-2,5.372559033E-1
2.798741081E0,-3.885000013E-3,-5.457090139E-1,-3.683999926E-2,5.469649044E-1
2.803752779E0,2.908799984E-2,-5.392169952E-1,-1.204050034E-1,5.532616420E-1
2.808764242E0,1.209160015E-1,-5.063430071E-1,-3.216100037E-1,6.119125058E-1
2.813775937E0,2.026119977E-1,-4.662179947E-1,-5.051400065E-1,7.166430537E-1
2.818787630E0,2.817620039E-1,-4.359650016E-1,-5.747539997E-1,7.744659254E-1
2.823799331E0,3.398309946E-1,-3.919529915E-1,-5.413709879E-1,7.497965050E-1
2.828810948E0,3.613179922E-1,-3.369449973E-1,-3.550980091E-1,6.084219085E-1
2.833822639E0,3.242070079E-1,-2.921720147E-1,-1.407700032E-1,4.585748183E-1
2.838834341E0,2.324080020E-1,-2.450899929E-1,1.073999982E-2,3.379318446E-1
2.843845805E0,1.572570056E-1,-2.078399956E-1,1.969040036E-1,3.266472351E-1
2.848857481E0,9.352499992E-2,-1.922509968E-1,3.430190086E-1,4.041898213E-1
2.853869173E0,6.176700071E-2,-1.907709986E-1,3.556570113E-1,4.082899043E-1
2.858880545E0,3.777600080E-2,-1.888220012E-1,3.017860055E-1,3.579882226E-1
2.863892466E0,4.695700109E-2,-2.007060051E-1,1.858839989E-1,2.775621038E-1
2.868903930E0,3.966499865E-2,-2.359350026E-1,8.395499736E-2,2.535489679E-1
2.873915596E0,6.295300275E-2,-2.755010128E-1,-2.779199928E-2,2.839652863E-1
2.878927213E0,1.582000032E-2,-2.712100148E-1,-1.474519968E-1,3.091071593E-1
2.883938904E0,2.089999989E-2,-2.593579888E-1,-2.683050036E-1,3.737525269E-1
2.888950577E0,2.569199912E-2,-2.376900017E-1,-3.607150018E-1,4.327492672E-1
2.893962040E0,1.627600007E-2,-2.160000056E-1,-3.865239918E-1,4.430820543E-1
2.898973731E0,2.786999941E-2,-1.873340011E-1,-3.966119885E-1,4.395131787E-1
2.903985328E0,1.361200027E-2,-1.756190062E-1,-3.542029858E-1,3.955844752E-1
2.908997018E0,2.098999918E-3,-1.714310050E-1,-2.816079855E-1,3.296908442E-1
2.914008697E0,-2.758900076E-2,-1.722529978E-1,-2.098550051E-1,2.728944327E-1
2.919020389E0,-5.657900125E-2,-1.638009995E-1,-1.318649948E-1,2.177620896E-1
2.924031853E0,-6.629099697E-2,-1.509799957E-1,-4.998800159E-2,1.723028023E-1
2.929043543E0,-5.067300051E-2,-1.171969995E-1,1.957900077E-2,1.291751793E-1
2.934055235E0,-3.588299826E-2,-9.103199840E-2,7.041399926E-2,1.205510082E-1
2.939066613E0,-1.494800020E-2,-5.327700078E-2,9.612800181E-2,1.109165193E-1
2.944078303E0,7.439000066E-3,-4.204300046E-2,9.065499902E-2,1.002061947E-1
2.949089996E0,3.357699886E-2,-2.610800043E-2,5.263699964E-2,6.767345321E-2
2.954101664E0,6.565599889E-2,-1.028800011E-2,1.561800018E-2,6.826767218E-2
2.959113281E0,9.195899963E-2,3.105999902E-3,-3.211199865E-2,9.745401637E-2
2.964124972E0,1.011409983E-1,2.131499909E-2,-6.472799927E-2,1.219571425E-1
2.969136664E0,1.124150008E-1,2.758000046E-2,-8.959700167E-2,1.463742175E-1
2.974148127E0,9.547699988E-2,3.877200186E-2,-1.070310026E-1,1.485757758E-1
2.979159823E0,7.458499819E-2,3.106399998E-2,-1.334690005E-1,1.560188070E-1
2.984171515E0,4.981400073E-2,2.351300046E-2,-1.338180006E-1,1.447119661E-1
2.989183133E0,1.666199975E-2,1.130999997E-2,-1.134039983E-1,1.151781454E-1
2.994194823E0,-6.043000147E-3,-3.294999944E-3,-7.282400131E-2,7.314854778E-2
2.999206300E0,-3.735499829E-2,-3.443999914E-3,-5.686299875E-2,6.812237268E-2
3.004217991E0,-3.519900143E-2,-1.088399999E-2,-3.450199962E-2,5.047592629E-2
3.009229683E0,-3.774200007E-2,-1.364200003E-2,-1.305299997E-2,4.220122679E-2
3.014241375E0,-4.232800007E-2,-3.094800003E-2,4.473999888E-2,6.892826557E-2
3.019253012E0,-3.758899868E-2,-2.695499919E-2,7.960999757E-2,9.207201810E-2
3.024264702E0,-1.897599921E-2,-3.769199923E-2,1.410879940E-1,1.472637002E-1
3.029276166E0,-7.880000398E-3,-3.907899931E-2,1.750050038E-1,1.794882000E-1
3.034287847E0,7.613999769E-3,-5.260600150E-2,1.938000023E-1,2.009572225E-1
3.039299464E0,-4.949999857E-4,-6.613700092E-2,2.071720064E-1,2.174731895E-1
3.044311232E0,-1.055900007E-2,-8.445300162E-2,2.245430052E-1,2.401319703E-1
3.049322863E0,-2.492300048E-2,-1.003509983E-1,2.389000058E-1,2.603165220E-1
3.054334553E0,-3.195799887E-2,-1.067280024E-1,2.596350014E-1,2.825287847E-1
3.059346022E0,-2.474699914E-2,-1.299210042E-1,2.703239918E-1,3.009434196E-1
3.064357712E0,-2.241900004E-2,-1.412200034E-1,2.804520130E-1,3.147999881E-1
3.069369330E0,-1.538900007E-2,-1.525910050E-1,2.899549901E-1,3.280163600E-1
3.074381020E0,5.605000071E-3,-1.832119972E-1,2.942689955E-1,3.466876024E-1
3.079392717E0,3.312600031E-2,-2.020609975E-1,3.121820092E-1,3.733411114E-1
3.084404410E0,4.850900173E-2,-2.377070040E-1,3.130620122E-1,3.960625790E-1
3.089415873E0,6.615299731E-2,-2.782000005E-1,3.301199973E-1,4.367501253E-1
3.094427500E0,8.128300309E-2,-3.114779890E-1,3.187749982E-1,4.530374859E-1
3.099439270E0,6.837400049E-2,-3.301669955E-1,2.960279882E-1,4.486845425E-1
3.104450892E0,5.606999993E-2,-3.489120007E-1,3.480769992E-1,4.960252276E-1
3.109462582E0,4.199400172E-2,-3.604600132E-1,3.820909858E-1,5.269615154E-1
3.114474260E0,4.938099906E-2,-3.792020082E-1,3.894270062E-1,5.457893727E-1
3.119485723E0,6.827799976E-2,-4.002940059E-1,3.641630113E-1,5.454464916E-1
3.124497337E0,9.380999953E-2,-4.356690049E-1,3.259980083E-1,5.521616604E-1
3.129509024E0,1.163320020E-1,-4.589009881E-1,2.546460032E-1,5.375572886E-1
3.134520716E0,1.268279999E-1,-4.937439859E-1,1.604010016E-1,5.344127118E-1
3.139532195E0,1.579879969E-1,-5.189719796E-1,1.113350019E-1,5.537938294E-1
3.144543885E0,1.720419973E-1,-5.321599841E-1,8.278200030E-2,5.653720519E-1
3.149555578E0,1.903530061E-1,-5.454699993E-1,9.948699921E-2,5.862332728E-1
3.154567270E0,1.848780066E-1,-5.444610119E-1,1.321610063E-1,5.899866120E-1
3.159578887E0,1.794369966E-1,-5.316450000E-1,1.917269975E-1,5.929614518E-1
3.164590578E0,1.715870053E-1,-4.950119853E-1,2.380730063E-1,5.754630503E-1
3.169602041E0,1.820639968E-1,-4.203589857E-1,2.831510007E-1,5.385382670E-1
3.174613731E0,1.918279976E-1,-3.577789962E-1,2.924549878E-1,5.003335994E-1
3.179625424E0,1.869589984E-1,-2.784239948E-1,2.832660079E-1,4.389911380E-1
3.184637036E0,1.865019947E-1,-2.062219977E-1,2.678419948E-1,3.860697353E-1
3.189648726E0,1.717280000E-1,-1.314290017E-1,2.184599936E-1,3.073903988E-1
3.194660409E0,1.198770031E-1,-5.149000138E-2,1.800169945E-1,2.223237154E-1
3.199671872E0,7.847099751E-2,2.148400061E-2,1.659259945E-1,1.847990676E-1
3.204683563E0,3.784300014E-2,8.984699845E-2,1.544589996E-1,1.826531094E-1
3.209695151E0,9.347000159E-3,1.798039973E-1,1.431739926E-1,2.300339888E-1
3.214706841E0,-1.868100092E-2,2.339770049E-1,1.273230016E-1,2.670306450E-1
3.219718301E0,-4.406400025E-2,2.905510068E-1,1.324779987E-1,3.223537557E-1
3.224730222E0,-5.271799862E-2,3.160189986E-1,1.232699975E-1,3.432822267E-1
3.229741686E0,-5.206000060E-2,3.293879926E-1,1.440909952E-1,3.632752513E-1
3.234753380E0,-3.065099940E-2,3.401179910E-1,1.780090034E-1,3.851063968E-1
3.239765072E0,-1.667699963E-2,3.148519993E-1,1.991890073E-1,3.729425752E-1
3.244776676E0,6.461000070E-3,2.559559941E-1,2.195509970E-1,3.372800850E-1
3.249788366E0,2.001499943E-2,1.921470016E-1,2.740330100E-1,3.352837023E-1
3.254799829E0,4.760599881E-2,1.089930013E-1,3.384590149E-1,3.587482546E-1
3.259811534E0,9.813500196E-2,3.500099853E-2,4.498490095E-1,4.617571655E-1
3.264823151E0,7.321500033E-2,-3.163700178E-2,4.884519875E-1,4.949208828E-1
3.269834842E0,1.050679982E-1,-8.877900243E-2,4.936949909E-1,5.124995020E-1
3.274846544E0,1.317279935E-1,-1.531040072E-1,4.922190011E-1,5.320457182E-1
3.279858007E0,1.184410006E-1,-2.075449973E-1,4.354149997E-1,4.966783854E-1
3.284869928E0,1.475269943E-1,-2.500300109E-1,3.967370093E-1,4.916090672E-1
3.289881401E0,1.434739977E-1,-2.803210020E-1,3.362939954E-1,4.607149916E-1
3.294893014E0,1.605949998E-1,-3.105250001E-1,2.707810104E-1,4.421977897E-1
3.299904707E0,1.726119965E-1,-3.191829920E-1,2.372840047E-1,4.335624322E-1
3.304916385E0,1.726070046E-1,-3.158569932E-1,2.161220014E-1,4.198422772E-1
3.309927849E0,1.679729968E-1,-3.244929910E-1,2.253510058E-1,4.292944265E-1
3.314939539E0,1.633760035E-1,-3.307920098E-1,2.453359962E-1,4.430630015E-1
3.319951231E0,1.401309967E-1,-3.323079944E-1,2.897039950E-1,4.625945353E-1
3.324962914E0,1.242569983E-1,-3.387010098E-1,3.553850055E-1,5.064155189E-1
3.329974531E0,1.107639968E-1,-3.308440149E-1,4.234870076E-1,5.486963375E-1
3.334986221E0,1.110109985E-1,-3.159590065E-1,4.733789861E-1,5.798630874E-1
3.339997705E0,1.502310038E-1,-3.156340122E-1,4.456039965E-1,5.663542230E-1
3.345009395E0,1.367619932E-1,-3.103420138E-1,3.683179915E-1,5.006736973E-1
3.350021087E0,1.859429926E-1,-3.004589975E-1,3.032940030E-1,4.656583060E-1
3.355032714E0,1.383859962E-1,-3.164629936E-1,2.107429951E-1,4.046135444E-1
3.360044404E0,-2.236999944E-2,-2.240030020E-1,1.886959970E-1,2.937412826E-1
3.365056097E0,-4.213200137E-2,-1.840720028E-1,1.146039963E-1,2.208883965E-1
3.370067570E0,6.871800125E-2,-2.570529878E-1,2.014599927E-2,2.668412703E-1
3.375079260E0,2.554599941E-2,-2.865369916E-1,-7.814700156E-2,2.980989760E-1
3.380090958E0,-7.430700213E-2,-3.009830117E-1,-1.619129926E-1,3.497543725E-1
3.385102575E0,-1.437859982E-1,-2.671740055E-1,-2.505759895E-1,3.935030991E-1
3.390114265E0,-1.561809927E-1,-1.998919994E-1,-2.956019938E-1,3.895251630E-1
3.395125958E0,-1.548610032E-1,-1.422969997E-1,-3.169659972E-1,3.803916532E-1
3.400137421E0,-1.729380041E-1,-5.132099986E-2,-3.015480042E-1,3.513866775E-1
3.405149112E0,-2.471050024E-1,5.412000045E-2,-2.434120029E-1,3.510544969E-1
3.410160793E0,-2.518070042E-1,8.863000199E-3,-2.873080075E-1,3.821403032E-1
3.415172485E0,-2.238129973E-1,-1.975999959E-2,-3.235659897E-1,3.939259640E-1
3.420184113E0,-1.733170003E-1,-2.241499908E-2,-2.829450071E-1,3.325644175E-1
3.425195803E0,-1.354829967E-1,-3.249499947E-2,-2.280530035E-1,2.672447190E-1
3.430207243E0,-1.213570014E-1,-4.745699838E-2,-1.567489952E-1,2.038380140E-1
3.435218933E0,-1.347869933E-1,-7.192999870E-2,-7.396999747E-2,1.697439801E-1
3.440230629E0,-1.472000033E-1,-7.718899846E-2,-3.081999952E-3,1.662392287E-1
3.445242247E0,-1.610630006E-1,-6.086099893E-2,7.716699690E-2,1.886798790E-1
3.450253937E0,-1.856759936E-1,-3.721100092E-2,1.341869980E-1,2.320913260E-1
3.455265658E0,-1.998880059E-1,-8.710999973E-3,2.104630023E-1,2.903890007E-1
3.460277122E0,-1.947859973E-1,1.982099935E-2,2.312240005E-1,3.029834899E-1
3.465288807E0,-1.639340073E-1,4.587600008E-2,2.446410060E-1,2.980405810E-1
3.470300499E0,-1.079749987E-1,6.224799901E-2,1.882009953E-1,2.257277749E-1
3.475312122E0,-6.235500053E-2,6.659699976E-2,1.405670047E-1,1.675780095E-1
3.480323812E0,-1.173380017E-1,4.980999976E-2,1.665170044E-1,2.097073091E-1
3.485335266E0,-1.423880011E-1,1.894100010E-2,1.409890056E-1,2.012734558E-1
3.490346956E0,-1.151750013E-1,-1.667400077E-2,7.011400163E-2,1.358649199E-1
3.495358648E0,-8.854400367E-2,-4.513499886E-2,1.540999976E-3,9.939609342E-2
3.500370281E0,-7.175499946E-2,-7.596600056E-2,-5.564900115E-2,1.183909816E-1
3.505382048E0,-4.599399865E-2,-9.490600228E-2,-8.564200252E-2,1.358570932E-1
3.510393665E0,-3.474700078E-2,-1.162410006E-1,-1.124159992E-1,1.653985525E-1
3.515405356E0,-2.356499992E-2,-1.639350057E-1,-8.508799970E-2,1.861987191E-1
3.520416819E0,-1.944299974E-2,-2.069009990E-1,-9.819000028E-3,2.080443856E-1
3.525428533E0,-8.306000382E-3,-2.474080026E-1,-8.738999814E-2,2.625199443E-1
3.530440226E0,9.069699794E-2,-2.787329853E-1,-2.365230024E-1,3.766445979E-1
3.535451823E0,2.100190073E-1,-2.914580107E-1,-3.395290077E-1,4.943032495E-1
3.540463514E0,3.072969913E-1,-3.070850074E-1,-3.682599962E-1,5.695156429E-1
3.545474977E0,3.924300075E-1,-2.945590019E-1,-2.976309955E-1,5.738906916E-1
3.550486667E0,4.425120056E-1,-2.585709989E-1,-1.422870010E-1,5.319035883E-1
3.555498360E0,4.654459953E-1,-2.181809992E-1,8.404900134E-2,5.208715366E-1
3.560509977E0,4.785149992E-1,-2.067479938E-1,3.241659999E-1,6.138443881E-1
3.565521658E0,3.171580136E-1,-1.872739941E-1,4.136539996E-1,5.538685636E-1
3.570533122E0,2.648800015E-1,-1.699299961E-1,4.943360090E-1,5.860082837E-1
3.575544812E0,2.373619974E-1,-1.739480048E-1,5.759810209E-1,6.468019501E-1
3.580556486E0,1.618379951E-1,-1.702689976E-1,5.195739865E-1,5.702106590E-1
3.585568103E0,2.068669945E-1,-1.619150043E-1,4.128910005E-1,4.893765425E-1
3.590579793E0,2.390830070E-1,-1.918849945E-1,3.083829880E-1,4.348339943E-1
3.595591486E0,2.380860001E-1,-2.169300020E-1,2.034099996E-1,3.809451366E-1
3.600603193E0,2.304240018E-1,-2.442149967E-1,9.291300178E-2,3.483805550E-1
3.605614885E0,2.023379952E-1,-2.736560106E-1,-9.999999747E-5,3.403355498E-1
3.610626349E0,1.774239987E-1,-2.885870039E-1,-4.859400168E-2,3.422325396E-1
3.615638058E0,1.554149985E-1,-2.651529908E-1,-3.566300124E-2,3.094055267E-1
3.620649750E0,1.593579948E-1,-2.513760030E-1,-2.734000096E-3,2.976446542E-1
3.625661383E0,1.630109996E-1,-2.400559932E-1,3.117400035E-2,2.918411968E-1
3.630673073E0,1.595679969E-1,-2.478799969E-1,7.071900368E-2,3.031626889E-1
3.635684756E0,1.445879936E-1,-2.652170062E-1,1.088360026E-1,3.210779092E-1
3.640696219E0,1.229979992E-1,-2.824639976E-1,1.201519966E-1,3.306825064E-1
3.645707909E0,9.255400300E-2,-2.852349877E-1,1.450659931E-1,3.331206749E-1
3.650719597E0,5.815000087E-2,-2.974340022E-1,1.460289955E-1,3.364117652E-1
3.655731289E0,5.688000098E-2,-2.905339897E-1,1.286900043E-1,3.228102397E-1
3.660742897E0,5.299200118E-2,-2.956190109E-1,9.593199939E-2,3.152803519E-1
3.665754359E0,5.346800014E-2,-2.887890041E-1,4.597799852E-2,2.972741029E-1
3.670766049E0,3.735100105E-2,-2.819249928E-1,2.317800000E-2,2.853314188E-1
3.675777742E0,3.064499982E-2,-2.702929974E-1,-5.716999993E-3,2.720847378E-1
3.680789443E0,2.630699985E-2,-2.754119933E-1,-1.514399983E-2,2.770797088E-1
3.685801060E0,-1.524600014E-2,-2.803590000E-1,3.585000057E-3,2.807961211E-1
3.690812746E0,1.613700017E-2,-2.878989875E-1,9.110000101E-4,2.883523187E-1
3.695824438E0,2.342900075E-2,-3.122369945E-1,1.189950034E-1,3.349636841E-1
3.700835912E0,-5.325600132E-2,-3.051030040E-1,8.991800249E-2,3.225047161E-1
3.705847602E0,1.581599936E-2,-2.888160050E-1,8.747900277E-2,3.021877008E-1
3.710859294E0,8.452000096E-3,-2.940430045E-1,1.178390011E-1,3.168891841E-1
3.715870912E0,-2.905599959E-2,-3.015019894E-1,1.128320023E-1,3.232317457E-1
3.720882602E0,-9.971000254E-3,-2.899509966E-1,1.383509934E-1,3.214218391E-1
3.725894284E0,-5.197599903E-2,-2.901790142E-1,1.424649954E-1,3.274166148E-1
3.730905748E0,-5.337800086E-2,-2.904129922E-1,1.305059940E-1,3.228323582E-1
3.735917429E0,-5.947399884E-2,-2.834520042E-1,1.005090028E-1,3.065685158E-1
3.740929046E0,-6.545999646E-2,-2.692910135E-1,7.636299729E-2,2.874612468E-1
3.745940737E0,-5.744900182E-2,-2.480069995E-1,5.073700100E-2,2.595806289E-1
3.750952438E0,-5.669000000E-2,-2.267339975E-1,1.216199994E-2,2.340298612E-1
3.755963902E0,-2.344400063E-2,-2.175890058E-1,4.432100058E-2,2.232911725E-1
3.760975592E0,-3.063100018E-2,-1.988310069E-1,2.903199941E-2,2.032606319E-1
3.765987289E0,-2.133899927E-2,-1.777220070E-1,2.797799930E-2,1.811718331E-1
3.770998907E0,-3.104999894E-3,-1.519300044E-1,4.776699841E-2,1.592923519E-1
3.776010597E0,-1.083199959E-2,-1.524000019E-1,6.457699835E-2,1.658712799E-1
3.781022298E0,1.178599987E-2,-1.386310011E-1,5.540499836E-2,1.497570636E-1
3.786033991E0,3.373600170E-2,-1.273600012E-1,3.497000039E-2,1.363143010E-1
3.791045454E0,4.810599983E-2,-1.233289987E-1,-9.660000214E-4,1.323826359E-1
3.796057145E0,7.377599925E-2,-1.241860017E-1,-2.652999945E-2,1.468635488E-1
3.801068818E0,1.035320014E-1,-1.323280036E-1,-7.908199728E-2,1.856974371E-1
3.806080435E0,1.395609975E-1,-1.382140070E-1,-1.370950043E-1,2.395316763E-1
3.811092126E0,1.678709984E-1,-1.465689987E-1,-1.889130026E-1,2.921493899E-1
3.816103818E0,2.003930062E-1,-1.645700037E-1,-2.347089946E-1,3.497555650E-1
3.821115281E0,2.044640034E-1,-1.729419976E-1,-3.118590117E-1,4.110602224E-1
3.826126987E0,1.878429949E-1,-1.668110043E-1,-3.431749940E-1,4.252998688E-1
3.831138604E0,1.605850011E-1,-1.820140034E-1,-3.163670003E-1,3.987539579E-1
3.836150284E0,1.344199926E-1,-1.779049933E-1,-2.703230083E-1,3.504189633E-1
3.841161977E0,1.047450006E-1,-1.759999990E-1,-2.380059958E-1,3.139974026E-1
3.846173440E0,6.239600107E-2,-1.905989945E-1,-2.070460021E-1,2.882521200E-1
3.851185371E0,3.559700027E-2,-2.026280016E-1,-1.770969927E-1,2.714564390E-1
3.856196835E0,-1.549699996E-2,-2.310969979E-1,-1.917800009E-1,3.007084106E-1
3.861208457E0,-5.308699980E-2,-2.569369972E-1,-1.799670011E-1,3.181555776E-1
3.866220150E0,-7.301399857E-2,-2.539280057E-1,-1.472519934E-1,3.024791326E-1
3.871231613E0,-1.081679985E-1,-2.889840007E-1,-6.893300265E-2,3.161705669E-1
3.876243520E0,-1.676110029E-1,-2.878380120E-1,-2.767400071E-2,3.342304890E-1
3.881254984E0,-2.044859976E-1,-2.769710124E-1,4.957300052E-2,3.478289052E-1
3.886266597E0,-2.195560038E-1,-2.612760067E-1,1.316860020E-1,3.658021236E-1
3.891278362E0,-1.811860055E-1,-2.290730029E-1,1.700769961E-1,3.379778008E-1
3.896289979E0,-5.164200068E-2,-1.449189931E-1,1.755139977E-1,2.333957458E-1
3.901301669E0,-3.738199919E-2,-1.469659954E-1,9.800600260E-2,1.805591156E-1
3.906313133E0,-1.660699956E-2,-1.538909972E-1,2.586399950E-2,1.569304875E-1
3.911324823E0,1.739400066E-2,-1.490159929E-1,-7.606299967E-2,1.682078991E-1
3.916336491E0,4.787499830E-2,-1.347309947E-1,-1.653719991E-1,2.186146255E-1
3.921348184E0,7.499500364E-2,-1.325500011E-1,-2.194769979E-1,2.671402365E-1
3.926359815E0,8.272799850E-2,-1.447529942E-1,-2.488960028E-1,2.995773210E-1
3.931371505E0,9.244199842E-2,-1.474339962E-1,-2.823889852E-1,3.317014399E-1
3.936383198E0,1.041190028E-1,-1.453990042E-1,-2.526839972E-1,3.095655659E-1
3.941394656E0,1.108080000E-1,-1.601500064E-1,-2.243150026E-1,2.970583407E-1
3.946406347E0,1.197260022E-1,-1.845130026E-1,-1.647710055E-1,2.748251226E-1
3.951418039E0,1.285119951E-1,-2.160950005E-1,-9.586899728E-2,2.690785141E-1
3.956429656E0,1.325380057E-1,-2.500750124E-1,-7.105900347E-2,2.918102410E-1
3.961441118E0,1.480450034E-1,-2.506400049E-1,-3.098000027E-2,2.927413457E-1
3.966453049E0,1.632930040E-1,-2.727890015E-1,-6.002000067E-3,3.179850130E-1
3.971464513E0,2.176499963E-1,-2.473279983E-1,2.978000045E-2,3.308013120E-1
3.976476193E0,2.243520021E-1,-2.457669973E-1,5.524700135E-2,3.373239823E-1
3.981487885E0,1.687230021E-1,-2.725769877E-1,8.011800051E-2,3.304308697E-1
3.986499498E0,1.222219989E-1,-3.014929891E-1,1.415019929E-1,3.547661955E-1
3.991511188E0,8.680500090E-2,-3.229990005E-1,1.573159993E-1,3.696103166E-1
3.996522656E0,5.270799994E-2,-3.371109962E-1,1.195769981E-1,3.615530604E-1
4.001534347E0,3.522000043E-3,-3.605380058E-1,1.227310002E-1,3.808713123E-1
4.006546039E0,-7.125999779E-3,-3.671649992E-1,9.354999661E-2,3.789624235E-1
4.011557657E0,1.008099969E-2,-3.643400073E-1,3.999000043E-2,3.666666983E-1
4.016569347E0,3.561300039E-2,-3.353759944E-1,-2.531999955E-3,3.372710401E-1
4.021581039E0,5.300899968E-2,-3.137289882E-1,-5.545400083E-2,3.229721014E-1
4.026592741E0,7.655099779E-2,-3.161619902E-1,-8.365099877E-2,3.358808552E-1
4.031604434E0,9.212800115E-2,-3.187139928E-1,-1.088630036E-1,3.491666241E-1
4.036615897E0,1.185379997E-1,-3.070749938E-1,-1.405739933E-1,3.579208807E-1
4.041627511E0,1.530710012E-1,-2.812989950E-1,-1.461430043E-1,3.520193655E-1
4.046639203E0,1.469379961E-1,-2.842290103E-1,-1.656029969E-1,3.602794161E-1
4.051650895E0,1.361390054E-1,-2.775759995E-1,-1.290390044E-1,3.350124311E-1
4.056662578E0,1.255760044E-1,-2.708930075E-1,-1.006340012E-1,3.150865859E-1
4.061674041E0,1.175339967E-1,-2.713719904E-1,-8.935199678E-2,3.089349072E-1
4.066685737E0,1.211260036E-1,-2.503699958E-1,-6.442499906E-2,2.854947006E-1
4.071697354E0,1.198170036E-1,-2.150409967E-1,-7.728000171E-3,2.462893960E-1
4.076709044E0,9.298399836E-2,-1.795990020E-1,3.106399998E-2,2.046137766E-1
4.081720823E0,5.082599819E-2,-1.654919982E-1,7.576599717E-2,1.889745218E-1
4.086732440E0,-1.528200042E-2,-1.701779962E-1,1.215749979E-1,2.097011446E-1
4.091743897E0,-6.065500155E-2,-1.722310036E-1,1.407510042E-1,2.305501963E-1
4.096755588E0,-8.806999773E-2,-2.076050043E-1,1.548960060E-1,2.735853340E-1
4.101767280E0,-8.883599937E-2,-2.429209948E-1,1.572629958E-1,3.027112392E-1
4.106778922E0,-1.078480035E-1,-2.900550067E-1,1.411699951E-1,3.401353647E-1
4.111790612E0,-1.028319970E-1,-3.371759951E-1,1.466069967E-1,3.817796259E-1
4.116802075E0,-8.162300289E-2,-3.795880079E-1,1.359290034E-1,4.113709571E-1
4.121813766E0,-3.785600141E-2,-4.150190055E-1,1.003770009E-1,4.286599983E-1
4.126825458E0,-7.168999873E-3,-4.338620007E-1,5.689200014E-2,4.376349276E-1
4.131837150E0,8.726499975E-2,-4.436219931E-1,1.088000019E-3,4.521248021E-1
4.136848768E0,7.120339870E-1,-3.032439947E-1,-2.153729945E-1,8.033273591E-1
4.141860457E0,6.042439938E-1,-3.128899932E-1,-2.796390057E-1,7.356690325E-1
4.146871921E0,8.562900126E-2,-4.132440090E-1,-2.148689926E-1,4.735732476E-1
4.151883611E0,-1.322569996E-1,-3.882290125E-1,-1.270679981E-1,4.293715829E-1
4.156895289E0,1.965091944E0,-3.657970130E-1,2.501310110E-1,2.014437719E0
4.161906907E0,1.882724047E0,-2.220569998E-1,5.917299986E-1,1.985976722E0
4.166918597E0,7.567160130E-1,-8.207699656E-2,2.305119932E-1,7.952933651E-1
4.171930294E0,3.449119925E-1,5.770099908E-2,-6.114700064E-2,3.550107655E-1
4.176941987E0,-2.480619997E-1,-3.899699822E-2,-2.115489990E-1,3.283420480E-1
4.181953679E0,-7.158039808E-1,-1.716720015E-1,-3.275420070E-1,8.056862798E-1
4.186965131E0,-9.608749747E-1,-2.767179906E-1,-3.477180004E-1,1.058660177E0
4.191976822E0,-1.170675039E0,-1.989890039E-1,-3.425799906E-1,1.235895514E0
4.196988454E0,-1.236613989E0,-1.855349988E-1,-2.897090018E-1,1.283576526E0
4.202000144E0,-1.160907030E0,-1.390350014E-1,-1.927700043E-1,1.184987822E0
4.207011832E0,-1.075140953E0,-1.169489995E-1,-1.944240034E-1,1.098820199E0
4.212023295E0,-9.701489806E-1,-8.831799775E-2,-1.571570039E-1,9.867560171E-1
4.217034981E0,-8.859450221E-1,-8.180399984E-2,-1.052289978E-1,8.959149617E-1
4.222046673E0,-8.518490195E-1,-1.162810028E-1,-3.660900146E-2,8.605278860E-1
4.227058290E0,-8.201230168E-1,-1.487450004E-1,1.202299967E-1,8.421294972E-1
4.232069971E0,-8.120120168E-1,-1.552399993E-1,3.095889986E-1,8.827844135E-1
4.237081434E0,-5.110210180E-1,-1.087530032E-1,4.264450073E-1,6.744071773E-1
4.242093116E0,-2.247779965E-1,-6.711000111E-3,4.499770105E-1,5.030402521E-1
4.247104808E0,-9.153600037E-2,4.422599822E-2,4.016790092E-1,4.143438243E-1
4.252116500E0,2.849600092E-2,4.424700141E-2,2.882100046E-1,2.929758112E-1
4.257128118E0,6.866800040E-2,1.061899960E-2,1.901739985E-1,2.024702623E-1
4.262139808E0,9.418500215E-2,-4.218799993E-2,1.094409972E-1,1.504259746E-1
4.267151266E0,1.771869957E-1,-7.625400275E-2,-1.702049971E-1,2.572540484E-1
4.272162957E0,3.717939854E-1,-9.697599709E-2,-4.668470025E-1,6.046331411E-1
4.277174649E0,5.261700153E-1,-1.040960029E-1,-6.065459847E-1,8.096844413E-1
4.282186326E0,5.951790214E-1,-9.714400023E-2,-5.439609885E-1,8.121382772E-1
4.287197944E0,5.349460244E-1,-9.218899906E-2,-3.574819863E-1,6.499687924E-1
4.292209639E0,4.999670088E-1,-1.062299982E-1,-9.683500230E-2,5.202199920E-1
4.297221331E0,4.544430077E-1,-9.376999736E-2,1.344240010E-1,4.830953029E-1
4.302232795E0,4.569630027E-1,-1.267849952E-1,3.077009916E-1,5.653048037E-1
4.307244461E0,3.253050148E-1,-1.995889992E-1,2.952930033E-1,4.825526697E-1
4.312256079E0,2.003010064E-1,-2.930940092E-1,1.980350018E-1,4.065002501E-1
4.317267769E0,4.004200175E-2,-3.831889927E-1,1.715900004E-1,4.217585735E-1
4.322279461E0,-1.523859948E-1,-4.601570070E-1,1.303460002E-1,5.019522310E-1
4.327291159E0,-2.904930115E-1,-5.052509904E-1,2.044969946E-1,6.176437273E-1
4.332302622E0,-3.068050146E-1,-4.929200113E-1,1.774529964E-1,6.071153271E-1
4.337314313E0,-2.375659943E-1,-4.500130117E-1,1.194399968E-1,5.226999380E-1
4.342325930E0,-1.803150028E-1,-4.171150029E-1,6.363599747E-2,4.588550599E-1
4.347337620E0,-1.391430050E-1,-4.036700130E-1,2.591199987E-2,4.277635877E-1
4.352349088E0,-6.982000172E-2,-3.429310024E-1,-6.095000077E-3,3.500195053E-1
4.357361009E0,8.410000242E-3,-2.875620127E-1,-3.269999847E-2,2.895374400E-1
4.362372472E0,1.047580019E-1,-2.519910038E-1,-6.801799685E-2,2.812474939E-1
4.367384086E0,2.163909972E-1,-1.980189979E-1,-8.406800032E-2,3.051295067E-1
4.372395855E0,2.805440128E-1,-1.683489978E-1,-1.185299978E-1,3.479880581E-1
4.377407489E0,2.614459991E-1,-1.409859955E-1,-7.581099868E-2,3.065589159E-1
4.382419179E0,2.915720046E-1,-1.090330034E-1,-4.861100018E-2,3.150642141E-1
4.387430627E0,2.883859873E-1,-9.141600132E-2,4.716999829E-2,3.061835588E-1
4.392442318E0,2.759180069E-1,-4.980599880E-2,2.168799937E-2,2.812147816E-1
4.397454001E0,3.287400007E-1,-1.568599977E-2,1.315900031E-2,3.293769846E-1
4.402465618E0,2.965799868E-1,-5.268000066E-3,9.549999610E-3,2.967804625E-1
4.407477299E0,2.424619943E-1,-2.557200007E-2,-4.725800082E-2,2.483446486E-1
4.412488991E0,2.111749947E-1,-7.194100320E-2,-1.140680015E-1,2.505631563E-1
4.417500455E0,1.115979999E-1,-1.391849965E-1,-1.651230007E-1,2.430888360E-1
4.422512145E0,-1.962899975E-2,-2.032389939E-1,-2.195609957E-1,2.998306474E-1
4.427523851E0,-1.050150022E-1,-2.596000135E-1,-2.146379948E-1,3.528311019E-1
4.432535544E0,-1.414179951E-1,-2.990050018E-1,-1.916950047E-1,3.822957170E-1
4.437547236E0,-1.559730023E-1,-3.240039945E-1,-1.372759938E-1,3.849037079E-1
4.442558863E0,-1.285679936E-1,-3.181230128E-1,-7.082100213E-2,3.503535280E-1
4.447570554E0,-8.590400219E-2,-3.173229992E-1,-1.860999968E-3,3.287504323E-1
4.452582017E0,-6.086499989E-2,-3.095160127E-1,3.490800038E-2,3.173693098E-1
4.457593726E0,-1.357099973E-2,-2.828820050E-1,5.678699911E-2,2.888445326E-1
4.462605419E0,3.226099908E-2,-2.637040019E-1,5.954999849E-2,2.722623275E-1
4.467617041E0,7.905899733E-2,-2.447880059E-1,4.622700065E-2,2.613588118E-1
4.472628503E0,1.106289998E-1,-2.308090031E-1,1.040100027E-2,2.561635265E-1
4.477640424E0,1.320959926E-1,-2.217109948E-1,-1.714899950E-2,2.586488057E-1
4.482652108E0,1.275710016E-1,-2.125460058E-1,-2.985499986E-2,2.496827709E-1
4.487663570E0,9.324999899E-2,-2.366469949E-1,4.142700136E-2,2.577082827E-1
4.492675207E0,-4.865099862E-2,-3.220759928E-1,2.407390028E-1,4.050371987E-1
4.497686899E0,-3.161000088E-3,-3.216510117E-1,1.793610007E-1,3.682929999E-1
4.502698597E0,8.493600041E-2,-3.097870052E-1,1.179440022E-1,3.421883990E-1
4.507710289E0,1.401540041E-1,-2.886720002E-1,2.851299942E-2,3.221609220E-1
4.512721753E0,1.707980037E-1,-3.011659980E-1,-6.041499972E-2,3.514582316E-1
4.517733443E0,1.798699945E-1,-3.136599958E-1,-1.072700024E-1,3.771507143E-1
4.522745060E0,1.633400023E-1,-3.188399971E-1,-1.065030023E-1,3.737402702E-1
4.527756727E0,1.264719963E-1,-3.070459962E-1,-8.985099941E-2,3.440139702E-1
4.532768419E0,9.989999980E-2,-2.783739865E-1,-4.609100148E-2,2.993266890E-1
4.537779878E0,7.630500197E-2,-2.424210012E-1,-8.390000090E-3,2.542848545E-1
4.542791568E0,2.549500018E-2,-2.205519974E-1,4.431900010E-2,2.264008665E-1
4.547803185E0,-2.615199983E-2,-2.055740058E-1,8.852300048E-2,2.253462238E-1
4.552814886E0,-6.723199785E-2,-1.927980036E-1,8.291800320E-2,2.203783269E-1
4.557826578E0,-5.637200177E-2,-1.609999985E-1,3.367700055E-2,1.738762274E-1
4.562838270E0,-1.373399980E-2,-1.295139939E-1,-5.330200121E-2,1.407252667E-1
4.567849734E0,-9.770999663E-3,-8.373799920E-2,-1.099169999E-1,1.385253472E-1
4.572861434E0,2.425299957E-2,-6.927099824E-2,-9.090299904E-2,1.168333618E-1
4.577873126E0,1.774900034E-2,-7.153400034E-2,-5.198999867E-2,9.019479020E-2
4.582884744E0,3.241499886E-2,-7.387000322E-2,-2.608899958E-2,8.478293122E-2
4.587896443E0,3.982000053E-2,-1.097220033E-1,-3.583899885E-2,1.221023517E-1
4.592908135E0,2.409199998E-2,-1.549880058E-1,-7.056300342E-2,1.719908249E-1
4.597919599E0,-6.600000052E-5,-2.239599973E-1,-8.066499978E-2,2.380439601E-1
4.602931289E0,1.150400005E-2,-2.666420043E-1,-7.846699655E-2,2.781858551E-1
4.607942982E0,4.138299823E-2,-2.807709873E-1,-3.901600093E-2,2.864736431E-1
4.612954609E0,4.241900146E-2,-2.638339996E-1,6.190099940E-2,2.742981676E-1
4.617966299E0,2.015700005E-2,-2.539710104E-1,1.643979996E-1,3.032066640E-1
4.622977758E0,-1.543899998E-2,-2.415229976E-1,2.290949970E-1,3.332510147E-1
4.627989679E0,-2.013500035E-2,-2.027900070E-1,2.572819889E-1,3.282121676E-1
4.633001133E0,-1.627000049E-3,-1.857189983E-1,1.946520060E-1,2.690419984E-1
4.638012823E0,4.606999923E-3,-1.758749932E-1,1.042309999E-1,2.044928826E-1
4.643024440E0,3.606999991E-3,-1.612479985E-1,1.218600012E-2,1.617480326E-1
4.648036131E0,-9.018000215E-3,-1.537200063E-1,-9.090600163E-2,1.788157314E-1
4.653047823E0,-3.306699917E-2,-1.221550032E-1,-1.539199948E-1,1.992652405E-1
4.658059525E0,-3.552199900E-2,-1.192890033E-1,-1.761240065E-1,2.156648891E-1
4.663070912E0,-4.498599842E-2,-9.964299947E-2,-1.284340024E-1,1.686646388E-1
4.668082679E0,-2.869799919E-2,-7.533399761E-2,-5.009799823E-2,9.491362273E-2
4.673094296E0,-1.982199959E-2,-7.022599876E-2,3.710100055E-2,8.186016621E-2
4.678105987E0,-2.063300088E-2,-4.601100087E-2,1.286389977E-1,1.381691885E-1
4.683117674E0,-1.670599915E-2,-5.770200118E-2,1.593800038E-1,1.703249746E-1
4.688129138E0,-1.156999962E-3,-7.902000099E-2,1.057569981E-1,1.320228838E-1
4.693140823E0,1.170200016E-2,-1.051750034E-1,5.373600125E-2,1.186856183E-1
4.698152440E0,2.192500047E-2,-1.265850067E-1,5.580999888E-3,1.285908905E-1
4.703164141E0,3.914500028E-2,-1.743530035E-1,-8.783999830E-3,1.789090817E-1
4.708175833E0,4.898799956E-2,-2.125850022E-1,-2.749699913E-2,2.198824509E-1
4.713187548E0,5.878600106E-2,-2.556110024E-1,-2.950599976E-2,2.639382172E-1
4.718199012E0,6.137799844E-2,-2.747189999E-1,8.370000287E-4,2.814933181E-1
4.723210722E0,7.777799666E-2,-2.771889865E-1,5.807700008E-2,2.936938695E-1
4.728222340E0,9.375499934E-2,-2.893129885E-1,9.046900272E-2,3.172958331E-1
4.733234020E0,1.114759967E-1,-2.824209929E-1,9.187199920E-2,3.172207107E-1
4.738245712E0,1.379150003E-1,-2.661139965E-1,4.712599888E-2,3.034107220E-1
4.743257176E0,1.472789943E-1,-2.498659939E-1,8.495000191E-3,2.901659561E-1
4.748268866E0,1.308279932E-1,-2.287330031E-1,-1.505399961E-2,2.639344112E-1
4.753280558E0,1.054859981E-1,-2.122509927E-1,-4.497700185E-2,2.412482339E-1
4.758292176E0,9.244000167E-2,-2.004919946E-1,-4.154499993E-2,2.246512427E-1
4.763303866E0,7.282999903E-2,-2.029750049E-1,-1.979300007E-2,2.165521282E-1
4.768315558E0,4.452700168E-2,-2.052900046E-1,1.048499998E-2,2.103249274E-1
4.773327256E0,7.714999840E-3,-2.050089985E-1,3.990599886E-2,2.089992810E-1
4.778338719E0,-3.966299817E-2,-2.068510056E-1,4.061000049E-2,2.144986342E-1
4.783350419E0,-4.631200060E-2,-2.015050054E-1,2.059300058E-2,2.077814724E-1
4.788362111E0,-2.507100068E-2,-1.819539964E-1,-4.756899923E-2,1.897330271E-1
4.793373728E0,9.409000166E-3,-1.602219939E-1,-8.347199857E-2,1.809065813E-1
4.798385410E0,3.114300035E-2,-1.290690005E-1,-1.021779999E-1,1.675381659E-1
4.803396873E0,3.837199882E-2,-1.099089980E-1,-8.807100356E-2,1.459756822E-1
4.808408564E0,5.482299998E-2,-1.147480011E-1,-8.149000257E-2,1.510406753E-1
4.813420181E0,5.696000159E-2,-1.124029979E-1,-5.679799989E-2,1.382204345E-1
4.818431871E0,6.387799978E-2,-1.268099993E-1,-2.836300060E-2,1.447951470E-1
4.823443568E0,8.938299865E-2,-1.437209994E-1,-1.713600010E-2,1.701137520E-1
4.828455031E0,7.492999732E-2,-1.820340008E-1,3.537299857E-2,2.000053273E-1
4.833466952E0,2.862600051E-2,-2.319969982E-1,1.141740009E-1,2.601494908E-1
4.838478412E0,-6.891999859E-3,-2.721509933E-1,1.628990024E-1,3.172534442E-1
4.843490025E0,4.929999821E-3,-2.765110135E-1,1.686609983E-1,3.239277355E-1
4.848501770E0,9.343000129E-3,-2.809030116E-1,1.397629976E-1,3.138908872E-1
4.853513388E0,1.124699973E-2,-2.709650099E-1,9.807299823E-2,2.883866235E-1
4.858525078E0,1.760799997E-2,-2.586939931E-1,3.001200035E-2,2.610236462E-1
4.863536546E0,4.241200164E-2,-2.585229874E-1,-1.740599982E-2,2.625564353E-1
4.868548236E0,4.321499914E-2,-2.607589960E-1,-1.468500029E-2,2.647233261E-1
4.873559853E0,3.239699826E-2,-2.724989951E-1,-1.658000052E-2,2.749184683E-1
4.878571554E0,4.281000048E-2,-2.747269869E-1,-6.028499827E-2,2.845028901E-1
4.883583246E0,7.364600152E-2,-2.675999999E-1,-1.213620007E-1,3.029228098E-1
4.888594938E0,1.267219931E-1,-2.584080100E-1,-1.761409938E-1,3.374297155E-1
4.893606416E0,1.481429935E-1,-2.684620023E-1,-1.808779985E-1,3.559986566E-1
4.898618106E0,1.410530061E-1,-2.665100098E-1,-1.463630050E-1,3.351800487E-1
4.903629719E0,1.294779927E-1,-2.573249936E-1,-7.832200080E-2,2.985214209E-1
4.908641409E0,1.158350036E-1,-2.409040034E-1,3.843999933E-3,2.673336178E-1
4.913653092E0,1.233009994E-1,-2.173909992E-1,1.022050008E-1,2.700145277E-1
4.918664556E0,1.187969968E-1,-1.819140017E-1,1.512639970E-1,2.647380351E-1
4.923676236E0,8.208999783E-2,-1.916459948E-1,1.805260032E-1,2.757835980E-1
4.928687854E0,4.168099910E-2,-1.868090034E-1,1.489730030E-1,2.425445630E-1
4.933699530E0,2.092099935E-2,-1.962269992E-1,1.348879933E-1,2.390345041E-1
4.938711222E0,-4.044999834E-3,-1.959609985E-1,8.426299691E-2,2.133479028E-1
4.943722914E0,-5.257000215E-3,-1.909459978E-1,9.747999720E-3,1.912669173E-1
4.948734378E0,4.945000168E-3,-1.812549978E-1,-6.484899670E-2,1.925700383E-1
4.953746068E0,1.696399972E-2,-1.764599979E-1,-1.397500038E-1,2.257342945E-1
4.958757761E0,4.012599960E-2,-1.670390069E-1,-2.080219984E-1,2.697874673E-1
4.963769378E0,5.099200085E-2,-1.672489941E-1,-2.189719975E-1,2.802162484E-1
4.968781068E0,8.480499685E-2,-1.652570069E-1,-1.906130016E-1,2.661486092E-1
4.973792770E0,1.108869985E-1,-1.657609940E-1,-1.658149958E-1,2.593592998E-1
4.978804233E0,9.948399663E-2,-1.924380064E-1,-3.547099978E-2,2.195168415E-1
4.983815910E0,8.197700232E-2,-2.332700044E-1,8.630000055E-2,2.618832067E-1
4.988827527E0,1.163220033E-1,-2.479279935E-1,2.856799960E-2,2.753456537E-1
4.993839217E0,2.171330005E-1,-2.487879992E-1,-1.312029958E-1,3.553258146E-1
4.998850910E0,2.456970066E-1,-2.616910040E-1,-2.255530059E-1,4.239379190E-1
5.003862373E0,2.434850037E-1,-2.673520148E-1,-1.873950064E-1,4.072823778E-1
5.008874063E0,2.183250040E-1,-2.943699956E-1,-9.451000020E-3,3.666180888E-1
5.013885746E0,1.240329966E-1,-2.897779942E-1,2.370849997E-1,3.944169966E-1
5.018897363E0,5.063899979E-2,-2.752729952E-1,3.884490132E-1,4.787819609E-1
5.023909059E0,-1.412799954E-2,-2.461220026E-1,3.251239955E-1,4.080211429E-1
5.028920751E0,-1.029900014E-1,-2.356880009E-1,1.718229949E-1,3.093200863E-1
5.033932428E0,-1.384039968E-1,-2.298900038E-1,5.857200176E-2,2.746557110E-1
5.038943892E0,-1.751939952E-1,-2.406509966E-1,-5.560300127E-2,3.028160033E-1
5.043955602E0,-1.667850018E-1,-2.562470138E-1,-1.940799952E-1,3.621419796E-1
5.048967294E0,-1.236269996E-1,-2.816370130E-1,-3.167310059E-1,4.414992324E-1
5.053978987E0,-7.231699675E-2,-3.048860133E-1,-3.362010121E-1,4.595827996E-1
5.058990674E0,-4.792800173E-2,-3.091039956E-1,-2.534359992E-1,4.025818912E-1
5.064002291E0,-1.497799996E-2,-2.991630137E-1,-1.388570070E-1,3.301577163E-1
5.069013748E0,3.313599899E-2,-2.512519956E-1,-4.669899866E-2,2.576943076E-1
5.074025438E0,6.337299943E-2,-1.963900030E-1,4.236099869E-2,2.106647207E-1
5.079037126E0,7.169900090E-2,-1.439969987E-1,8.448799700E-2,1.816978371E-1
5.084048818E0,6.812699884E-2,-1.155190021E-1,1.044360027E-1,1.699788412E-1
5.089060435E0,5.310299993E-2,-9.411799908E-2,8.902700245E-2,1.400140476E-1
5.094071887E0,3.394500166E-2,-9.651499987E-2,4.156700149E-2,1.104319879E-1
5.099083577E0,-3.350500017E-2,-9.374599904E-2,-4.521999974E-3,9.965613808E-2
5.104095269E0,-7.120200247E-2,-9.794899821E-2,-3.312499821E-2,1.255428091E-1
5.109106962E0,-7.783500105E-2,-8.780399710E-2,-5.428100005E-2,1.292836272E-1
5.114118584E0,5.253899843E-2,-6.648299843E-2,-4.929870069E-1,5.002164775E-1
5.119130275E0,1.049349979E-1,-3.341599926E-2,-8.299480081E-1,8.372225982E-1
5.124141967E0,-7.380700111E-2,-8.063799888E-2,-3.600980043E-1,3.763250364E-1
5.129153454E0,-1.290259957E-1,-9.892600030E-2,9.046100080E-2,1.860571250E-1
5.134165145E0,-6.922099739E-2,-8.654899895E-2,2.793210149E-1,3.005037521E-1
5.139176837E0,7.160999812E-3,-7.226099819E-2,2.843340039E-1,2.934599761E-1
5.144188429E0,5.362899974E-2,-9.647300094E-2,2.526580095E-1,2.757157582E-1
5.149200120E0,8.044499904E-2,-1.279509962E-1,1.969690025E-1,2.482733236E-1
5.154211812E0,7.420299947E-2,-1.617210060E-1,2.038280070E-1,2.705653809E-1
5.159223267E0,5.458699912E-2,-2.168300003E-1,2.180760056E-1,3.123333695E-1
5.164234957E0,3.167999908E-3,-2.476679981E-1,1.930280030E-1,3.140211512E-1
5.169246564E0,-3.971400112E-2,-2.638869882E-1,1.554149985E-1,3.088160718E-1
5.174258255E0,-9.770999849E-2,-2.797850072E-1,1.542949975E-1,3.341165071E-1
5.179269952E0,-1.147880033E-1,-2.717210054E-1,2.599699982E-2,2.961155762E-1
5.184281644E0,-7.368899882E-2,-2.472530007E-1,-1.076079980E-1,2.795417610E-1
5.189293117E0,-6.099000107E-3,-2.304069996E-1,-1.747049987E-1,2.892169079E-1
5.194304807E0,4.326700047E-2,-2.162410021E-1,-1.588650048E-1,2.717909013E-1
5.199316406E0,6.802400202E-2,-2.093770057E-1,-9.035299718E-2,2.379698709E-1
5.204328096E0,1.360860020E-1,-1.861709952E-1,1.537500042E-2,2.311177839E-1
5.209339783E0,2.487419993E-1,-1.659840047E-1,1.342560053E-1,3.277925365E-1
5.214351476E0,3.420479894E-1,-1.606380045E-1,2.057529986E-1,4.302739731E-1
5.219362944E0,4.007039964E-1,-1.865999997E-1,2.639339864E-1,5.148246321E-1
5.224374634E0,4.257110059E-1,-2.077810019E-1,2.952809930E-1,5.582057597E-1
5.229386318E0,3.739739954E-1,-2.404839993E-1,2.867189944E-1,5.290528186E-1
5.234398010E0,2.985680103E-1,-2.463420033E-1,3.044350147E-1,4.924509291E-1
5.239409702E0,1.560239941E-1,-2.489150017E-1,3.291969895E-1,4.412174325E-1
5.244421320E0,1.295899972E-2,-2.267459929E-1,3.144710064E-1,3.879093900E-1
5.249433005E0,-6.601399928E-2,-1.683509946E-1,2.522000074E-1,3.103300650E-1
5.254444469E0,-1.199619994E-1,-1.193580031E-1,1.365569979E-1,2.174512080E-1
5.259456159E0,-2.513209879E-1,-1.629810035E-1,-3.099999949E-2,3.011412400E-1
5.264467766E0,-3.837400079E-1,-2.202820033E-1,-2.052180022E-1,4.877447929E-1
5.269479457E0,-4.017710090E-1,-1.963150054E-1,-3.304789960E-1,5.560358728E-1
5.274491149E0,-2.717129886E-1,-1.326220036E-1,-3.366369903E-1,4.524831569E-1
5.279502603E0,-5.333400145E-2,-6.556200236E-2,-2.573690116E-1,2.708905683E-1
5.284514293E0,1.399170011E-1,-4.751100019E-2,-1.528339982E-1,2.125847910E-1
5.289525985E0,2.651839852E-1,-8.273900300E-2,-5.866799876E-2,2.839193948E-1
5.294537603E0,3.575730026E-1,-1.996449977E-1,6.025100127E-2,4.139405277E-1
5.299549284E0,4.669950008E-1,-3.863210082E-1,1.475140005E-1,6.237696951E-1
5.304560747E0,4.054270089E-1,-5.938130021E-1,1.046779975E-1,7.265964658E-1
5.309572669E0,2.343100011E-1,-5.083850026E-1,-7.557000220E-2,5.648604365E-1
5.314584122E0,1.627649963E-1,-3.461239934E-1,-2.387389988E-1,4.508775581E-1
5.319595812E0,2.134580016E-1,-1.747149974E-1,-4.021160007E-1,4.876340090E-1
