"Time (s)","Linear Acceleration x (m/s^2)","Linear Acceleration y (m/s^2)","Linear Acceleration z (m/s^2)","Absolute acceleration (m/s^2)"
4.530690600E-2,-8.419209719E-1,-3.015849888E-1,-2.192099951E-2,8.945752951E-1
5.031852100E-2,-8.459839821E-1,-3.221139908E-1,2.550699934E-2,9.055920318E-1
5.533022200E-2,-8.195229769E-1,-3.374809921E-1,1.291110069E-1,8.956455670E-1
6.034168600E-2,-8.259959817E-1,-3.382169902E-1,2.130990028E-1,9.176444188E-1
6.535329900E-2,-8.203409910E-1,-3.506129980E-1,3.084670007E-1,9.439495254E-1
7.036499200E-2,-8.100399971E-1,-3.483580053E-1,3.988609910E-1,9.677851967E-1
7.537646000E-2,-7.813370228E-1,-3.555270135E-1,4.242689908E-1,9.575443473E-1
8.038815100E-2,-7.533490062E-1,-3.626190126E-1,4.285539985E-1,9.395135992E-1
8.539976800E-2,-7.214069963E-1,-3.769100010E-1,3.986049891E-1,9.062974900E-1
9.041145300E-2,-6.834409833E-1,-3.936649859E-1,3.517130017E-1,8.635772892E-1
9.542291700E-2,-6.488940120E-1,-4.225339890E-1,2.767710090E-1,8.223141748E-1
1.004346070E-1,-6.616610289E-1,-4.492560029E-1,1.793249995E-1,8.196241387E-1
1.054462200E-1,-6.554610133E-1,-4.593980014E-1,1.016400009E-1,8.068496474E-1
1.104576810E-1,-6.725270152E-1,-4.792079926E-1,4.759600013E-2,8.271627806E-1
1.154693710E-1,-7.190949917E-1,-4.870559871E-1,2.790299989E-2,8.689647398E-1
1.204809930E-1,-7.524510026E-1,-4.900420010E-1,2.740699984E-2,8.983734289E-1
1.254926830E-1,-8.078129888E-1,-4.761190116E-1,5.951499939E-2,9.395707388E-1
1.305043760E-1,-8.498049974E-1,-4.332590103E-1,1.045060009E-1,9.595850186E-1
1.355158540E-1,-8.789430261E-1,-3.614610136E-1,1.552419960E-1,9.629615697E-1
1.405274670E-1,-8.654490113E-1,-3.013699949E-1,2.230740041E-1,9.431796628E-1
1.455391400E-1,-8.430489898E-1,-2.218459994E-1,3.075659871E-1,9.244155359E-1
1.505506030E-1,-8.305209875E-1,-1.372739971E-1,3.874660134E-1,9.266818076E-1
1.555622120E-1,-8.369190097E-1,-8.138799667E-2,3.631339967E-1,9.159277997E-1
1.605739040E-1,-7.436519861E-1,7.992000319E-3,3.583630025E-1,8.255338819E-1
1.655853630E-1,-6.023079753E-1,8.298499882E-2,3.654330075E-1,7.093678102E-1
1.705969760E-1,-4.953399897E-1,1.483850032E-1,3.723050058E-1,6.371740986E-1
1.756086680E-1,-3.729960024E-1,1.826439947E-1,3.858509958E-1,5.668913808E-1
1.806203610E-1,-2.426519990E-1,2.001509964E-1,4.149360061E-1,5.206844564E-1
1.856318240E-1,-1.346659958E-1,2.080969959E-1,4.499169886E-1,5.136775125E-1
1.906435010E-1,-4.370899871E-2,1.968680024E-1,4.651220143E-1,5.069575674E-1
1.956551180E-1,4.227399826E-2,1.640979946E-1,4.794459939E-1,5.085112622E-1
2.006665790E-1,1.349969953E-1,1.504189968E-1,4.908390045E-1,5.308229382E-1
2.056782120E-1,2.180600017E-1,1.343190074E-1,5.016390085E-1,5.632348134E-1
2.106899040E-1,2.569200099E-1,9.905599803E-2,4.955390096E-1,5.669028949E-1
2.157013520E-1,3.201479912E-1,4.940000176E-2,5.010889769E-1,5.966785225E-1
2.207130420E-1,3.629420102E-1,2.015999984E-3,4.550659955E-1,5.820790558E-1
2.257246400E-1,3.742330074E-1,-6.224299967E-2,3.937219977E-1,5.467554722E-1
2.307363310E-1,3.595969975E-1,-1.337309927E-1,3.523280025E-1,5.208925036E-1
2.357477940E-1,3.152570128E-1,-1.956990063E-1,2.953999937E-1,4.742849792E-1
2.407594080E-1,2.465939969E-1,-2.601889968E-1,2.072439939E-1,4.140736485E-1
2.457710950E-1,1.867389977E-1,-2.768299878E-1,1.724369973E-1,3.758201876E-1
2.507825590E-1,1.216849983E-1,-2.980470061E-1,2.148949951E-1,3.870647434E-1
2.557942490E-1,1.456999965E-2,-3.118059933E-1,2.673929930E-1,4.110161494E-1
2.608058710E-1,-9.853799641E-2,-3.444249928E-1,3.156909943E-1,4.774925301E-1
2.658173330E-1,-2.035769969E-1,-3.695569932E-1,3.762980103E-1,5.653460511E-1
2.708290230E-1,-2.799290121E-1,-3.776980042E-1,4.258289933E-1,6.343077847E-1
2.758406170E-1,-3.424899876E-1,-3.880079985E-1,4.691970050E-1,6.985666955E-1
2.808523070E-1,-3.568409979E-1,-3.934490085E-1,4.788199961E-1,7.151267082E-1
2.858639990E-1,-3.685649931E-1,-4.084120095E-1,4.836480021E-1,7.324997704E-1
2.908754680E-1,-3.614709973E-1,-4.353800118E-1,4.605660141E-1,7.296150285E-1
2.958870810E-1,-3.314279914E-1,-4.624559879E-1,4.289959967E-1,7.125641160E-1
3.008987630E-1,-2.838140130E-1,-4.824680090E-1,4.054040015E-1,6.911426612E-1
3.059102270E-1,-2.284329981E-1,-5.097519755E-1,3.941569924E-1,6.836581352E-1
3.109218350E-1,-1.771200001E-1,-5.396230221E-1,3.508119881E-1,6.675579012E-1
3.159335280E-1,-1.343369931E-1,-5.648080111E-1,3.343049884E-1,6.699360733E-1
3.209449620E-1,-9.052400291E-2,-6.020519733E-1,3.205719888E-1,6.880607340E-1
3.259566530E-1,-8.511699736E-2,-6.249849796E-1,3.049710095E-1,7.006129064E-1
3.309682700E-1,-4.265400022E-2,-6.719660163E-1,2.828199863E-1,7.303046183E-1
3.359799650E-1,5.663099885E-2,-7.048289776E-1,2.496149987E-1,7.498657248E-1
3.409914290E-1,-1.591050029E-1,-7.820050120E-1,4.605410099E-1,9.213817138E-1
3.460030420E-1,-1.668380052E-1,-7.111520171E-1,3.853299916E-1,8.258639802E-1
3.510147260E-1,-1.957700029E-2,-5.713089705E-1,3.759520054E-1,6.841908425E-1
3.560261890E-1,8.700899780E-2,-6.387730241E-1,6.729069948E-1,9.318826995E-1
3.610378030E-1,-8.689700067E-2,-7.111430168E-1,5.345010161E-1,8.938494366E-1
3.660494800E-1,-8.674199879E-2,-6.646670103E-1,3.387860060E-1,7.510541703E-1
3.710611720E-1,1.185029969E-1,-5.350859761E-1,3.100619912E-1,6.296811896E-1
3.760726460E-1,2.494239956E-1,-4.153369963E-1,3.433330059E-1,5.937968533E-1
3.810842590E-1,3.134070039E-1,-3.100520074E-1,3.740020096E-1,5.781294843E-1
3.860957370E-1,3.590919971E-1,-2.598609924E-1,3.971889913E-1,5.951755141E-1
3.911074270E-1,3.802579939E-1,-2.457119972E-1,3.617349863E-1,5.795021379E-1
3.961190340E-1,3.289110065E-1,-2.555170059E-1,3.249650002E-1,5.282742108E-1
4.011307250E-1,2.395620048E-1,-2.604359984E-1,3.006789982E-1,4.643540927E-1
4.061424170E-1,1.688439995E-1,-2.437140048E-1,2.978779972E-1,4.202809935E-1
4.111538810E-1,1.415109932E-1,-2.150090039E-1,2.950670123E-1,3.915594140E-1
4.161655710E-1,1.354990005E-1,-2.102590054E-1,2.804130018E-1,3.757662572E-1
4.211771880E-1,8.746600151E-2,-2.126139998E-1,2.751939893E-1,3.585899414E-1
4.261886500E-1,3.118200041E-2,-2.243349999E-1,3.022359908E-1,3.776838671E-1
4.312002780E-1,1.774900034E-2,-2.287890017E-1,3.211899996E-1,3.947435245E-1
4.362119710E-1,1.348100044E-2,-2.475000024E-1,3.414120078E-1,4.219006372E-1
4.412234340E-1,1.590400003E-2,-2.708899975E-1,3.628329933E-1,4.530806870E-1
4.462351330E-1,1.078400016E-2,-2.870970070E-1,3.553510010E-1,4.569631495E-1
4.512467510E-1,5.406000186E-3,-2.959930003E-1,3.824599981E-1,4.836493887E-1
4.562584410E-1,9.077000432E-3,-3.143669963E-1,4.037359953E-1,5.117731472E-1
4.612698910E-1,2.611299977E-2,-3.040229976E-1,4.125950038E-1,5.131729816E-1
4.662815810E-1,3.070000000E-2,-2.984740138E-1,4.093779922E-1,5.075623778E-1
4.712931930E-1,5.346399918E-2,-3.120079935E-1,4.244019985E-1,5.294567438E-1
4.763046550E-1,6.145500019E-2,-3.039070070E-1,4.480580091E-1,5.448781199E-1
4.813163450E-1,8.066800237E-2,-3.172299862E-1,4.776610136E-1,5.790528773E-1
4.863279580E-1,1.085110009E-1,-3.327569962E-1,5.269340277E-1,6.325830580E-1
4.913396480E-1,1.307979971E-1,-3.387680054E-1,5.142949820E-1,6.295801823E-1
4.963511120E-1,1.593189985E-1,-3.400070071E-1,5.158839822E-1,6.380623725E-1
5.013628020E-1,1.775739938E-1,-3.485339880E-1,4.895699918E-1,6.266476210E-1
5.063744190E-1,1.951880008E-1,-3.451919854E-1,4.687460065E-1,6.139858964E-1
5.113861100E-1,1.982579976E-1,-3.540149927E-1,4.137299955E-1,5.794871507E-1
5.163974960E-1,1.756460071E-1,-3.724760115E-1,3.811509907E-1,5.611291979E-1
5.214092920E-1,1.791400015E-1,-3.599629998E-1,3.425210118E-1,5.281904438E-1
5.264206790E-1,1.499280035E-1,-3.737680018E-1,3.233659863E-1,5.164750590E-1
5.314323830E-1,1.006409973E-1,-3.850829899E-1,3.184170127E-1,5.097125792E-1
5.364440760E-1,3.885199875E-2,-3.867149949E-1,3.109320104E-1,4.977315343E-1
5.414556930E-1,-1.427400019E-2,-3.954080045E-1,3.102970123E-1,5.028274783E-1
5.464671550E-1,-5.662899837E-2,-3.966569901E-1,3.487089872E-1,5.311700001E-1
5.514788450E-1,-9.562300146E-2,-3.857870102E-1,3.624579906E-1,5.379137204E-1
5.564904770E-1,-1.382559985E-1,-3.723109961E-1,3.893850148E-1,5.561932116E-1
5.615021680E-1,-1.520510018E-1,-3.729560077E-1,4.314459860E-1,5.902214243E-1
5.665136310E-1,-1.704500020E-1,-3.590210080E-1,4.720279872E-1,6.170572973E-1
5.715252450E-1,-1.630129963E-1,-3.545080125E-1,4.995740056E-1,6.338953817E-1
5.765369370E-1,-1.561059952E-1,-3.570649922E-1,5.191360116E-1,6.491276368E-1
5.815483960E-1,-1.380909979E-1,-3.642959893E-1,5.402669907E-1,6.660849140E-1
5.865600860E-1,-1.024060026E-1,-3.715429902E-1,5.373190045E-1,6.612434465E-1
5.915717780E-1,-7.498899847E-2,-3.741250038E-1,5.064049959E-1,6.340653659E-1
5.965833960E-1,-4.632399976E-2,-3.838819861E-1,5.016409755E-1,6.333679503E-1
6.015948570E-1,-2.107200027E-2,-3.936020136E-1,5.037350059E-1,6.396213962E-1
6.066064700E-1,-8.342999965E-3,-4.033420086E-1,4.868920147E-1,6.323118025E-1
6.116181780E-1,1.544700004E-2,-4.202780128E-1,4.725230038E-1,6.325742699E-1
6.166296410E-1,1.748700067E-2,-4.372709990E-1,4.443649948E-1,6.236761742E-1
6.216412550E-1,7.741000038E-3,-4.613089859E-1,4.490959942E-1,6.438579934E-1
6.266529620E-1,-4.093999974E-3,-4.638020098E-1,4.325380027E-1,6.342067399E-1
6.316644260E-1,-2.947600000E-2,-4.684599936E-1,4.556120038E-1,6.541451660E-1
6.366761060E-1,-7.494699955E-2,-4.561510086E-1,4.755179882E-1,6.631803318E-1
6.416877980E-1,-1.213629991E-1,-4.411230087E-1,5.179100037E-1,6.910493892E-1
6.466994010E-1,-1.757870018E-1,-4.089230001E-1,5.822569728E-1,7.328999061E-1
6.517108620E-1,-2.054730058E-1,-3.763329983E-1,6.495400071E-1,7.782980808E-1
6.567225680E-1,-2.298109978E-1,-3.626450002E-1,6.847710013E-1,8.082300509E-1
6.617341850E-1,-2.354409993E-1,-3.180679977E-1,6.784729958E-1,7.854459378E-1
6.667456700E-1,-2.155620009E-1,-2.857030034E-1,6.426579952E-1,7.355966838E-1
6.717573610E-1,-1.779090017E-1,-2.322510034E-1,5.782679915E-1,6.480632774E-1
6.767689680E-1,-1.461309940E-1,-1.746670008E-1,4.744769931E-1,5.262995777E-1
6.817806590E-1,-9.909600019E-2,-1.034860015E-1,3.580459952E-1,3.856504952E-1
6.867923510E-1,-6.740500033E-2,-2.118499950E-2,2.270630002E-1,2.378021117E-1
6.918038190E-1,-5.049400032E-2,9.342700243E-2,3.088700026E-2,1.105995282E-1
6.968154330E-1,-5.501199886E-2,2.427770048E-1,-1.516229957E-1,2.914730295E-1
7.018268910E-1,-5.699000135E-2,4.290690124E-1,-3.647669852E-1,5.660415454E-1
7.068385820E-1,-8.217599988E-2,6.454820037E-1,-5.050169826E-1,8.236759464E-1
7.118502740E-1,-1.251630038E-1,8.898649812E-1,-5.901600122E-1,1.075088044E0
7.168618620E-1,-1.749670058E-1,1.130198002E0,-6.290029883E-1,1.305222485E0
7.218733240E-1,-2.476990074E-1,1.355643034E0,-6.549329758E-1,1.525798164E0
7.268850000E-1,-3.575370014E-1,1.501492977E0,-7.749739885E-1,1.727106989E0
7.318966180E-1,-5.092750192E-1,1.548573971E0,-1.058222055E0,1.943521625E0
7.369083130E-1,-7.054600120E-1,1.475391984E0,-1.538347960E0,2.245210409E0
7.419197770E-1,-8.938670158E-1,1.313248992E0,-2.185321093E0,2.701712315E0
7.469313900E-1,-1.048859000E0,1.086326003E0,-2.914544106E0,3.282495503E0
7.519430530E-1,-1.118273020E0,8.475890160E-1,-3.622813940E0,3.885064032E0
7.569545170E-1,-1.049222946E0,6.287500262E-1,-4.132893085E0,4.310104482E0
7.619661060E-1,-9.272969961E-1,4.546020031E-1,-4.407856941E0,4.527222715E0
7.669777980E-1,-7.447419763E-1,3.692379892E-1,-4.396761894E0,4.474649982E0
7.719892620E-1,-5.799739957E-1,3.086580038E-1,-4.058224201E0,4.111061088E0
7.770009520E-1,-4.302529991E-1,3.181929886E-1,-3.557554007E0,3.597576258E0
7.820125700E-1,-2.859739959E-1,4.048080146E-1,-2.876126051E0,2.918518754E0
7.870242640E-1,-1.421319991E-1,5.371059775E-1,-2.041969061E0,2.116204617E0
7.920357280E-1,-1.707999967E-2,7.195630074E-1,-1.140161037E0,1.348343368E0
7.970473160E-1,7.165300101E-2,9.231929779E-1,-2.402829975E-1,9.566375206E-1
8.020590080E-1,8.742699772E-2,1.113312960E0,5.449939966E-1,1.242629342E0
8.070704720E-1,5.911000073E-3,1.262815952E0,1.186856985E0,1.733022958E0
8.120821620E-1,-1.533470005E-1,1.390766025E0,1.607391000E0,2.131068104E0
8.170937800E-1,-2.921240032E-1,1.480311990E0,1.805353999E0,2.352862742E0
8.221052410E-1,-3.598389924E-1,1.505089045E0,1.809939027E0,2.381314010E0
8.271169310E-1,-6.051210165E-1,1.481803060E0,1.662235975E0,2.307583192E0
8.321286200E-1,-8.080379963E-1,1.422402024E0,1.345535994E0,2.118164307E0
8.371402370E-1,-9.999660254E-1,1.343626976E0,9.219650030E-1,1.911879957E0
8.421516990E-1,-1.145336986E0,1.259858012E0,5.155670047E-1,1.779002068E0
8.471633880E-1,-1.356807947E0,1.195055962E0,1.402589977E-1,1.813493629E0
8.521750050E-1,-1.510323048E0,1.115748048E0,-1.589179933E-1,1.884469247E0
8.571864670E-1,-1.704223037E0,1.055454016E0,-4.444209933E-1,2.053258230E0
8.621981570E-1,-1.807227969E0,9.711189866E-1,-7.429130077E-1,2.181986424E0
8.672097750E-1,-1.829350948E0,8.771219850E-1,-1.047567010E0,2.283257434E0
8.722214650E-1,-1.704378963E0,7.861449718E-1,-1.366230011E0,2.321533116E0
8.772329490E-1,-1.357792020E0,6.875759959E-1,-1.610725999E0,2.216032076E0
8.822446390E-1,-1.047080040E0,5.911009908E-1,-1.825276017E0,2.185728604E0
8.872562560E-1,-6.622279882E-1,4.823609889E-1,-2.006278992E0,2.167111770E0
8.922677130E-1,-2.569960058E-1,3.805429935E-1,-2.157067060E0,2.205402054E0
8.972794030E-1,3.348740041E-1,3.309589922E-1,-2.297352076E0,2.345101493E0
9.022910300E-1,1.180701017E0,2.498220056E-1,-2.397334099E0,2.683966600E0
9.073024910E-1,1.827909946E0,1.090120003E-1,-2.486061096E0,3.087659010E0
9.123141770E-1,2.282715082E0,-7.181899995E-2,-2.624088049E0,3.478761878E0
9.173257950E-1,2.554923058E0,-3.328849971E-1,-2.646557093E0,3.693603755E0
9.223374850E-1,2.486244917E0,-6.188809872E-1,-2.586162090E0,3.640420555E0
9.273489490E-1,2.174254894E0,-8.844320178E-1,-2.374941111E0,3.339154027E0
9.323606390E-1,1.809875965E0,-1.041362047E0,-2.071784973E0,2.941492631E0
9.373722800E-1,1.562280059E0,-1.037400961E0,-1.729670048E0,2.551211126E0
9.423837420E-1,1.449193001E0,-9.470480084E-1,-1.327420950E0,2.181537683E0
9.473954320E-1,1.355712056E0,-8.303229809E-1,-9.526510239E-1,1.853357873E0
9.524071530E-1,1.214498043E0,-7.065100074E-1,-6.622459888E-1,1.553297021E0
9.574187700E-1,1.008759975E0,-6.115980148E-1,-4.762870073E-1,1.272202080E0
9.624302470E-1,7.567449808E-1,-5.337309837E-1,-3.450829983E-1,9.882378280E-1
9.674419370E-1,4.738149941E-1,-4.730109870E-1,-2.320690006E-1,7.085873718E-1
9.724535730E-1,1.539990008E-1,-4.008629918E-1,-9.481299669E-2,4.397685014E-1
9.774650350E-1,-2.016199976E-1,-3.173260093E-1,1.976899989E-2,3.764800565E-1
9.824767250E-1,-5.318440199E-1,-2.726010084E-1,1.402200013E-1,6.138656368E-1
9.874883430E-1,-8.214219809E-1,-2.139029950E-1,2.342559993E-1,8.805478040E-1
9.925000330E-1,-1.175832987E0,-1.962510049E-1,2.974349856E-1,1.228643659E0
9.975115060E-1,-1.510527015E0,-1.428840011E-1,3.659490049E-1,1.560777490E0
1.002523120E0,-1.652863026E0,-3.676500171E-2,4.422009885E-1,1.711388197E0
1.007534788E0,-1.587597966E0,9.360499680E-2,4.515739977E-1,1.653223600E0
1.012546252E0,-1.443212986E0,1.693110019E-1,3.470239937E-1,1.493973089E0
1.017557942E0,-1.395547986E0,1.663690060E-1,1.687889993E-1,1.415529072E0
1.022569573E0,-1.390478969E0,9.427600354E-2,4.889699817E-2,1.394528825E0
1.027581035E0,-1.366513968E0,2.002399974E-2,-6.101899967E-2,1.368022186E0
1.032592744E0,-1.284952044E0,-6.835199893E-2,-1.775130033E-1,1.298955203E0
1.037604362E0,-1.133604050E0,-1.852850020E-1,-2.609829903E-1,1.177922236E0
1.042616057E0,-1.039456010E0,-3.715229928E-1,-2.611179948E-1,1.134319504E0
1.047627521E0,-1.218852043E0,-6.222569942E-1,-1.571860015E-1,1.377501909E0
1.052639124E0,-1.418920994E0,-7.747719884E-1,3.152899817E-2,1.616973252E0
1.057650816E0,-1.146934032E0,-8.412610292E-1,1.222200021E-1,1.427625834E0
1.062662285E0,-5.867589712E-1,-9.415400028E-1,7.230999880E-3,1.109430464E0
1.067673975E0,-2.037670016E-1,-1.042315960E0,-1.936790049E-1,1.079562461E0
1.072685593E0,2.622619867E-1,-1.116768956E0,-3.920029998E-1,1.212279095E0
1.077697059E0,9.418269992E-1,-1.267783046E0,-4.471139908E-1,1.641408806E0
1.082708749E0,1.022649050E0,-1.559941053E0,-2.275779992E-1,1.879100560E0
1.087720362E0,5.518959761E-1,-1.837718010E0,4.211900011E-2,1.919263052E0
1.092732052E0,3.652099967E-1,-1.981485963E0,1.591230035E-1,2.021134605E0
1.097743521E0,5.674049854E-1,-1.981678009E0,1.883500069E-1,2.069896585E0
1.102755211E0,7.041990161E-1,-1.919646978E0,1.609009951E-1,2.051055803E0
1.107766828E0,7.660369873E-1,-1.840852976E0,1.988639981E-1,2.003771253E0
1.112778519E0,8.966150284E-1,-1.714177966E0,2.783710063E-1,1.954434707E0
1.117789962E0,1.053154945E0,-1.604231000E0,2.272679955E-1,1.932444872E0
1.122801576E0,1.300693035E0,-1.511003971E0,1.432310045E-1,1.998862300E0
1.127813254E0,1.467486024E0,-1.422534943E0,1.003220007E-1,2.046261322E0
1.132824718E0,1.508671999E0,-1.377112031E0,4.332699999E-2,2.043136309E0
1.137836326E0,1.431429982E0,-1.353201032E0,-2.806700021E-2,1.970008270E0
1.142848018E0,1.429352999E0,-1.288597941E0,-1.826700009E-2,1.924543669E0
1.147859482E0,1.500164032E0,-1.195269942E0,3.689400107E-2,1.918469058E0
1.152871167E0,1.572249055E0,-1.111497998E0,2.985499986E-2,1.925691100E0
1.157882785E0,1.531252980E0,-1.063845038E0,-7.017999887E-3,1.864551208E0
1.162894237E0,1.435387969E0,-1.039788961E0,-4.731500149E-2,1.773059056E0
1.167905927E0,1.251549959E0,-1.013126016E0,-6.091399863E-2,1.611369647E0
1.172917560E0,1.031026959E0,-9.983739853E-1,-2.099700086E-2,1.435342496E0
1.177929250E0,7.931950092E-1,-9.765440226E-1,9.624800086E-2,1.261768691E0
1.182940714E0,6.054540277E-1,-9.357190132E-1,2.213090062E-1,1.136275639E0
1.187952423E0,4.404000044E-1,-9.094129801E-1,3.494000137E-1,1.069141946E0
1.192964040E0,2.924799919E-1,-8.712409735E-1,4.065450132E-1,1.004929961E0
1.197975502E0,1.677290052E-1,-8.522750139E-1,4.322049916E-1,9.702097058E-1
1.202987173E0,6.997299939E-2,-8.046320081E-1,4.319379926E-1,9.159144712E-1
1.207998791E0,1.427299995E-2,-7.641540170E-1,4.017589986E-1,8.634496935E-1
1.213010252E0,1.631999970E-3,-7.164809704E-1,3.865180016E-1,8.140907872E-1
1.218021937E0,7.565999869E-3,-6.663900018E-1,3.716579974E-1,7.630612989E-1
1.223033555E0,3.146599978E-2,-6.378049850E-1,3.569749892E-1,7.315848898E-1
1.228045226E0,8.213499933E-2,-6.187750101E-1,3.794069886E-1,7.304644648E-1
1.233056690E0,1.240739971E-1,-6.140909791E-1,4.167880118E-1,7.524721484E-1
1.238068380E0,1.715610027E-1,-6.213650107E-1,4.640699923E-1,7.942849690E-1
1.243080002E0,2.408089936E-1,-6.214410067E-1,5.346649885E-1,8.544264428E-1
1.248091464E0,3.080550134E-1,-6.286479831E-1,5.932490230E-1,9.176276920E-1
1.253103144E0,3.944689929E-1,-6.501439810E-1,6.470800042E-1,9.985016346E-1
1.258114762E0,4.532890022E-1,-6.907219887E-1,7.216830254E-1,1.096993243E0
1.263126223E0,4.646599889E-1,-7.527830005E-1,8.001400232E-1,1.192818179E0
1.268137914E0,4.555140138E-1,-8.123850226E-1,8.591179848E-1,1.267101477E0
1.273149606E0,4.332410097E-1,-8.886600137E-1,9.410640001E-1,1.364923384E0
1.278161308E0,3.982479870E-1,-9.265450239E-1,1.015205026E0,1.430988604E0
1.283172926E0,4.039289951E-1,-9.451299906E-1,1.068094015E0,1.482313785E0
1.288184387E0,4.442560077E-1,-9.419689775E-1,1.103013039E0,1.517005840E0
1.293196025E0,4.742639959E-1,-9.290360212E-1,1.118154049E0,1.529150988E0
1.298207717E0,4.755820036E-1,-8.944200277E-1,1.084316969E0,1.483882986E0
1.303219180E0,5.811120272E-1,-8.667449951E-1,1.046931982E0,1.478176123E0
1.308230803E0,6.370880008E-1,-8.819360137E-1,1.026749015E0,1.495963165E0
1.313242495E0,6.219400167E-1,-9.161490202E-1,9.976199865E-1,1.490430827E0
1.318253959E0,5.355359912E-1,-9.742190242E-1,9.990590215E-1,1.494663987E0
1.323265587E0,4.356519878E-1,-1.022624969E0,1.030205011E0,1.515545066E0
1.328277279E0,3.133049905E-1,-1.058987021E0,1.074164033E0,1.540597903E0
1.333288748E0,1.853689998E-1,-1.085728049E0,1.098307014E0,1.555456640E0
1.338300438E0,7.515600324E-2,-1.095687985E0,1.103489041E0,1.556877853E0
1.343312056E0,-1.323499996E-2,-1.077105999E0,1.000380039E0,1.470065550E0
1.348323517E0,-5.735399947E-2,-1.061043024E0,9.080039859E-1,1.397702765E0
1.353335198E0,-4.927200079E-2,-9.971730113E-1,8.423069715E-1,1.306239939E0
1.358346815E0,-5.069399998E-2,-9.191679955E-1,7.143520117E-1,1.165220358E0
1.363358510E0,-7.285200059E-2,-8.414850235E-1,5.653449893E-1,1.016375627E0
1.368369974E0,-1.105640009E-1,-7.641580105E-1,4.238390028E-1,8.807958694E-1
1.373381668E0,-1.659030020E-1,-6.585209966E-1,2.781359851E-1,7.338483053E-1
1.378393286E0,-1.898899972E-1,-5.220779777E-1,1.726720035E-1,5.817553151E-1
1.383404747E0,-1.906459928E-1,-3.668969870E-1,2.544800006E-2,4.142546250E-1
1.388416442E0,-1.666270047E-1,-2.000750005E-1,-9.495200217E-2,2.771469777E-1
1.393428060E0,-1.276990026E-1,-7.238000166E-3,-2.147700042E-1,2.499711555E-1
1.398439750E0,-1.367319971E-1,2.068649977E-1,-3.040710092E-1,3.923620075E-1
1.403451233E0,-1.805319935E-1,4.327419996E-1,-3.689509928E-1,5.966425010E-1
1.408462846E0,-2.695339918E-1,6.273660064E-1,-4.129360020E-1,7.979679320E-1
1.413474529E0,-3.722819984E-1,7.979840040E-1,-4.489060044E-1,9.883769310E-1
1.418485993E0,-4.907200038E-1,9.399030209E-1,-4.568839967E-1,1.154541813E0
1.423497606E0,-5.804529786E-1,1.059234023E0,-4.520699978E-1,1.289678122E0
1.428509284E0,-5.959460139E-1,1.161914945E0,-4.250620008E-1,1.373271894E0
1.433520747E0,-6.017929912E-1,1.209674001E0,-3.521209955E-1,1.396228917E0
1.438532428E0,-5.646100044E-1,1.216871023E0,-2.835640013E-1,1.371119283E0
1.443544045E0,-4.845960140E-1,1.183518052E0,-1.788270026E-1,1.291327756E0
1.448555517E0,-3.523190022E-1,1.109614015E0,5.288999993E-3,1.164216438E0
1.453567207E0,-2.013449967E-1,1.028656960E0,1.540450007E-1,1.059436081E0
1.458578834E0,-9.780800343E-2,8.908380270E-1,3.547360003E-1,9.638446067E-1
1.463590296E0,3.239100054E-2,7.680420280E-1,5.806639791E-1,9.633838229E-1
1.468601986E0,2.256959975E-1,6.819670200E-1,8.383079767E-1,1.103982773E0
1.473613607E0,4.432969987E-1,6.230220199E-1,1.033859015E0,1.285897791E0
1.478625298E0,5.638009906E-1,5.792570114E-1,1.232206941E0,1.473683883E0
1.483636761E0,6.714239717E-1,5.673249960E-1,1.349761963E0,1.610752978E0
1.488648370E0,8.109560013E-1,6.156790257E-1,1.340405941E0,1.683270146E0
1.493660062E0,8.676289916E-1,7.263699770E-1,1.235991955E0,1.675729549E0
1.498671526E0,9.764959812E-1,8.932189941E-1,1.135156989E0,1.743549817E0
1.503683216E0,1.104297042E0,1.172662973E0,1.102767944E0,1.952103364E0
1.508694824E0,1.229725003E0,1.571884990E0,1.138805985E0,2.297808756E0
1.513706515E0,1.281164050E0,2.069288969E0,1.222252011E0,2.723460692E0
1.518717973E0,1.208806992E0,2.585825920E0,1.308380961E0,3.139995346E0
1.523729587E0,9.145749807E-1,3.078291893E0,1.281123996E0,3.457398887E0
1.528741279E0,4.771260023E-1,3.465204000E0,1.108234048E0,3.669260238E0
1.533752756E0,-2.762000076E-2,3.703367949E0,6.927649975E-1,3.767707575E0
1.538764447E0,-4.901669919E-1,3.843012094E0,3.503600135E-2,3.874304216E0
1.543776064E0,-8.775439858E-1,3.896195889E0,-7.555869818E-1,4.064644823E0
1.548787755E0,-1.086776018E0,3.877437115E0,-1.494025946E0,4.295080234E0
1.553799218E0,-1.110146999E0,3.786926985E0,-2.115222931E0,4.477433461E0
1.558810846E0,-1.032762051E0,3.636802912E0,-2.542176008E0,4.555830520E0
1.563822539E0,-9.658610225E-1,3.424788952E0,-2.740492105E0,4.491365478E0
1.568833986E0,-8.702880144E-1,3.153328896E0,-2.718112946E0,4.253119130E0
1.573845600E0,-8.218399882E-1,2.841540098E0,-2.582639933E0,3.926805332E0
1.578857292E0,-9.018669724E-1,2.477377892E0,-2.440851927E0,3.592843356E0
1.583868747E0,-9.605119824E-1,2.139695883E0,-2.324861050E0,3.302402253E0
1.588880360E0,-8.815249801E-1,1.852309942E0,-2.230771065E0,3.030590364E0
1.593892023E0,-7.446550131E-1,1.605543971E0,-2.179017067E0,2.807204643E0
1.598903487E0,-6.081420183E-1,1.375381947E0,-2.221286058E0,2.682466023E0
1.603915177E0,-4.846999943E-1,1.135476947E0,-2.385935068E0,2.686434092E0
1.608926785E0,-3.708699942E-1,8.909389973E-1,-2.500072956E0,2.679865973E0
1.613938475E0,-2.853170037E-1,6.463090181E-1,-2.611059904E0,2.704950085E0
1.618949967E0,-2.574349940E-1,3.731699884E-1,-2.640062094E0,2.678704253E0
1.623961581E0,-3.109830022E-1,8.123300225E-2,-2.617463112E0,2.637123882E0
1.628973044E0,-4.288659990E-1,-2.509750128E-1,-2.549524069E0,2.597496387E0
1.633984745E0,-6.177769899E-1,-6.162750125E-1,-2.444314003E0,2.595402521E0
1.638996362E0,-8.721569777E-1,-1.012279987E0,-2.305244923E0,2.664492957E0
1.644008052E0,-1.179368973E0,-1.401492000E0,-2.238214016E0,2.892177896E0
1.649019501E0,-1.479859948E0,-1.762048960E0,-2.138998032E0,3.141673850E0
1.654031191E0,-1.756626964E0,-2.074852943E0,-2.014362097E0,3.383549569E0
1.659042795E0,-1.959117055E0,-2.318425894E0,-1.890076041E0,3.575699330E0
1.664054256E0,-2.144453049E0,-2.488008022E0,-1.732406020E0,3.713501503E0
1.669065947E0,-2.264493942E0,-2.562097073E0,-1.531494975E0,3.746698691E0
1.674077559E0,-2.328530073E0,-2.538321018E0,-1.368594050E0,3.706504495E0
1.679089249E0,-2.326680899E0,-2.411879063E0,-1.239186049E0,3.572980084E0
1.684100713E0,-2.311333895E0,-2.197102070E0,-1.083835006E0,3.368118198E0
1.689112326E0,-2.330363035E0,-1.953770995E0,-9.484739900E-1,3.185500885E0
1.694124019E0,-2.094250917E0,-1.564576983E0,-8.169909716E-1,2.738843239E0
1.699135468E0,-1.839710951E0,-1.187414050E0,-7.305790186E-1,2.308296820E0
1.704147081E0,-1.534803033E0,-8.201709986E-1,-6.369720101E-1,1.853114718E0
1.709158783E0,-1.213875055E0,-4.592100084E-1,-5.306460261E-1,1.402123991E0
1.714170475E0,-8.655229807E-1,-1.023949981E-1,-4.583010077E-1,9.847104038E-1
1.719181862E0,-5.436829925E-1,2.166099995E-1,-3.959049881E-1,7.065775596E-1
1.724193552E0,-2.146130055E-1,5.096439719E-1,-3.454029858E-1,6.519961218E-1
1.729205244E0,2.625500038E-2,6.856369972E-1,-3.251569867E-1,7.592855082E-1
1.734216703E0,1.440020055E-1,7.325879931E-1,-2.947889864E-1,8.026968866E-1
1.739228316E0,2.231059968E-1,6.791260242E-1,-3.010469973E-1,7.756402112E-1
1.744240019E0,3.085289896E-1,5.491030216E-1,-3.451279998E-1,7.182044291E-1
1.749251482E0,4.069130123E-1,3.807159960E-1,-4.374110103E-1,7.084146110E-1
1.754263096E0,4.551169872E-1,1.858669966E-1,-5.670239925E-1,7.504626710E-1
1.759274559E0,4.385310113E-1,-2.112499997E-2,-7.117090225E-1,8.362328900E-1
1.764286249E0,3.778339922E-1,-2.450120002E-1,-8.359109759E-1,9.494927939E-1
1.769297867E0,2.698409855E-1,-4.665659964E-1,-9.123520255E-1,1.059662307E0
1.774309557E0,9.080199897E-2,-7.120850086E-1,-9.678859711E-1,1.205036645E0
1.779321021E0,-3.860599920E-2,-9.216769934E-1,-9.938700199E-1,1.356007566E0
1.784332696E0,-1.408410072E-1,-1.125051975E0,-9.716809988E-1,1.493232098E0
1.789344313E0,-3.005479872E-1,-1.333181024E0,-9.260600209E-1,1.650844601E0
1.794356004E0,-4.555119872E-1,-1.534108996E0,-8.929520249E-1,1.832578757E0
1.799367482E0,-5.986239910E-1,-1.703907967E0,-8.528649807E-1,1.997256047E0
1.804379096E0,-7.228869796E-1,-1.847373962E0,-7.937690020E-1,2.136685604E0
1.809390563E0,-8.186680079E-1,-1.974076033E0,-7.443220019E-1,2.263008779E0
1.814402254E0,-8.812479973E-1,-2.081638098E0,-6.971639991E-1,2.365555504E0
1.819413871E0,-9.322749972E-1,-2.138942003E0,-6.284279823E-1,2.416429451E0
1.824425547E0,-9.573330283E-1,-2.208213091E0,-5.523530245E-1,2.469369443E0
1.829437240E0,-9.732699990E-1,-2.241590977E0,-4.450100064E-1,2.483952194E0
1.834448703E0,-9.608629942E-1,-2.234294891E0,-3.494650126E-1,2.457123756E0
1.839460322E0,-9.680190086E-1,-2.186325073E0,-2.513639927E-1,2.404217541E0
1.844471785E0,-9.396849871E-1,-2.126399040E0,-1.075140014E-1,2.327260195E0
1.849483480E0,-8.972640038E-1,-2.054527998E0,3.919899836E-2,2.242254345E0
1.854495098E0,-8.313649893E-1,-1.970731020E0,1.939209998E-1,2.147685697E0
1.859506559E0,-7.656800151E-1,-1.882195950E0,3.354159892E-1,2.059473565E0
1.864518173E0,-7.025250196E-1,-1.762609005E0,4.637489915E-1,1.953303621E0
1.869529865E0,-6.919659972E-1,-1.640674949E0,5.741279721E-1,1.870896618E0
1.874541557E0,-6.909130216E-1,-1.521185994E0,6.473590136E-1,1.791770444E0
1.879553006E0,-6.993709803E-1,-1.389772058E0,7.000700235E-1,1.706072735E0
1.884564619E0,-7.101550102E-1,-1.267964005E0,7.392609715E-1,1.630509013E0
1.889576317E0,-7.136960030E-1,-1.136612058E0,7.433930039E-1,1.534236655E0
1.894587780E0,-7.299529910E-1,-1.039899945E0,7.154129744E-1,1.458094300E0
1.899599471E0,-7.665129900E-1,-9.384840131E-1,6.083760262E-1,1.355881925E0
1.904611093E0,-8.338479996E-1,-9.089379907E-1,4.705550075E-1,1.320186643E0
1.909622555E0,-9.932119846E-1,-9.652990103E-1,4.690639973E-1,1.462290415E0
1.914634235E0,-1.221678019E0,-9.852550030E-1,5.787979960E-1,1.672791596E0
1.919645852E0,-1.474519968E0,-8.996250033E-1,5.213689804E-1,1.804261593E0
1.924657543E0,-1.574452996E0,-6.537969708E-1,3.000450134E-1,1.731005409E0
1.929669006E0,-9.812150002E-1,-3.681870103E-1,1.114889979E-1,1.053932800E0
1.934680620E0,-8.870299906E-2,-3.086839914E-1,-4.557000007E-3,3.212083356E-1
1.939692083E0,1.014809981E-1,-5.796840191E-1,-1.532299966E-1,6.081211942E-1
1.944703778E0,-3.393020034E-1,-9.122279882E-1,-2.226040065E-1,9.984178964E-1
1.949715396E0,-7.281720042E-1,-1.048663020E0,-1.564310044E-1,1.286234526E0
1.954727086E0,-5.032050014E-1,-9.880869985E-1,-4.832499847E-2,1.109894813E0
1.959738545E0,-8.468600363E-2,-9.446489811E-1,4.102899879E-2,9.493243889E-1
1.964750235E0,1.290740073E-1,-1.009124041E0,1.679559946E-1,1.031116213E0
1.969761857E0,1.333600003E-2,-1.121377945E0,3.439989984E-1,1.173030969E0
1.974773319E0,-1.957740039E-1,-1.209661961E0,5.312309861E-1,1.335595702E0
1.979785015E0,-3.387820125E-1,-1.221397996E0,7.276179790E-1,1.461510944E0
1.984796633E0,-2.870070040E-1,-1.170976996E0,9.384199977E-1,1.527806349E0
1.989808318E0,-1.768289953E-1,-1.144572020E0,1.101804018E0,1.598526101E0
1.994819781E0,-9.180799872E-2,-1.142176032E0,1.174828053E0,1.641101993E0
1.999831404E0,-5.586700141E-2,-1.168573976E0,1.155161977E0,1.644106277E0
2.004842867E0,-3.778000176E-2,-1.199828982E0,1.143074989E0,1.657599875E0
2.009854558E0,-8.301100135E-2,-1.243113041E0,1.105061054E0,1.665347049E0
2.014866166E0,-4.081499949E-2,-1.217051983E0,1.091125011E0,1.635064275E0
2.019877856E0,-5.447199941E-2,-1.234107971E0,1.098989010E0,1.653410574E0
2.024889329E0,-8.783800155E-2,-1.277511954E0,1.071113944E0,1.669442239E0
2.029901019E0,-1.479209960E-1,-1.344859958E0,1.031414986E0,1.701277696E0
2.034912637E0,-2.681109905E-1,-1.428976059E0,9.870749712E-1,1.757319857E0
2.039924084E0,-4.341149926E-1,-1.510710001E0,9.788730145E-1,1.851727008E0
2.044935775E0,-6.245819926E-1,-1.573336005E0,9.470570087E-1,1.939692199E0
2.049947377E0,-7.893919945E-1,-1.571388960E0,9.062020183E-1,1.978283367E0
2.054958839E0,-9.405750036E-1,-1.552744031E0,8.875420094E-1,2.020748916E0
2.059970534E0,-1.035061955E0,-1.474308968E0,8.287310004E-1,1.982860372E0
2.064982226E0,-1.084692001E0,-1.383942962E0,7.632809877E-1,1.916886206E0
2.069993844E0,-1.096634984E0,-1.248131990E0,7.077670097E-1,1.805927987E0
2.075005320E0,-1.020696998E0,-1.067052960E0,6.223030090E-1,1.602399893E0
2.080017010E0,-8.997160196E-1,-8.503490090E-1,5.332040191E-1,1.347920205E0
2.085028628E0,-7.789130211E-1,-6.075810194E-1,4.681920111E-1,1.093189805E0
2.090040074E0,-6.672660112E-1,-3.602559865E-1,4.169830084E-1,8.653918967E-1
2.095051688E0,-5.549929738E-1,-1.322779953E-1,3.813320100E-1,6.862425015E-1
2.100063380E0,-4.233259857E-1,8.112599701E-2,3.536640108E-1,5.575522846E-1
2.105074839E0,-3.028529882E-1,2.871980071E-1,3.452430069E-1,5.416598209E-1
2.110086452E0,-1.559740007E-1,4.979139864E-1,3.578329980E-1,6.326852940E-1
2.115098144E0,4.480199888E-2,7.037609816E-1,4.280110002E-1,8.249122102E-1
2.120109608E0,2.354270071E-1,9.286940098E-1,4.892889857E-1,1.075779787E0
2.125121298E0,4.486800134E-1,1.165263057E0,5.814210176E-1,1.377389613E0
2.130132916E0,6.432459950E-1,1.339673996E0,6.729779840E-1,1.631377085E0
2.135144377E0,8.118299842E-1,1.451931000E0,7.639549971E-1,1.830518721E0
2.140156068E0,9.281830192E-1,1.478091955E0,8.471869826E-1,1.940104463E0
2.145167675E0,1.039875031E0,1.444489002E0,9.034659863E-1,1.996030898E0
2.150179365E0,1.170868039E0,1.367854953E0,9.712179899E-1,2.045781885E0
2.155190810E0,1.323387027E0,1.262547970E0,1.043262005E0,2.105653393E0
2.160202423E0,1.447250962E0,1.107028008E0,1.110147953E0,2.133652932E0
2.165213887E0,1.535120964E0,9.156489968E-1,1.076043963E0,2.086355691E0
2.170225572E0,1.558946013E0,7.418490052E-1,1.053419948E0,2.022460434E0
2.175237189E0,1.521232963E0,5.447009802E-1,1.062250972E0,1.933707840E0
2.180248880E0,1.437631011E0,3.601430058E-1,1.078225970E0,1.832773077E0
2.185260587E0,1.330643058E0,1.812150031E-1,1.191773057E0,1.795486799E0
2.190272051E0,1.173123002E0,-4.011000041E-3,1.297431946E0,1.749160747E0
2.195283654E0,9.737570286E-1,-1.572169960E-1,1.409458041E0,1.720317385E0
2.200295118E0,8.085880280E-1,-2.518480122E-1,1.606930971E0,1.816444099E0
2.205306808E0,6.025170088E-1,-2.903079987E-1,1.792649031E0,1.913346813E0
2.210318449E0,4.035930037E-1,-2.127359957E-1,2.000693083E0,2.052051834E0
2.215329911E0,1.885380000E-1,-5.509800091E-2,2.201452971E0,2.210198531E0
2.220341591E0,-8.891600370E-2,1.515119970E-1,2.428859949E0,2.435204836E0
2.225353209E0,-3.702970147E-1,4.480470121E-1,2.562509060E0,2.627607027E0
2.230364899E0,-6.434530020E-1,8.617889881E-1,2.510000944E0,2.730717262E0
2.235376362E0,-9.298899770E-1,1.356783986E0,2.302865028E0,2.829972702E0
2.240387999E0,-1.267938972E0,1.911442041E0,1.931897044E0,2.998917488E0
2.245399462E0,-1.660119057E0,2.461086988E0,1.548346043E0,3.348181583E0
2.250411154E0,-2.020335913E0,3.027148008E0,1.306079984E0,3.866681677E0
2.255422771E0,-2.336297035E0,3.609450102E0,1.182412028E0,4.459205319E0
2.260434461E0,-2.674550056E0,4.131173134E0,1.023522019E0,5.026669553E0
2.265445929E0,-3.178363085E0,4.467642784E0,6.804320216E-1,5.524926396E0
2.270457542E0,-3.802459955E0,4.568473816E0,-1.796199940E-2,5.943902535E0
2.275469235E0,-4.406602859E0,4.479219913E0,-1.205960035E0,6.398116864E0
2.280480942E0,-4.881928921E0,4.269618034E0,-2.694205999E0,7.022934865E0
2.285492634E0,-5.086040020E0,3.942593098E0,-4.216055870E0,7.693306865E0
2.290504011E0,-5.137174129E0,3.568092108E0,-5.608351231E0,8.400919167E0
2.295515473E0,-4.859079838E0,3.175276041E0,-6.532837868E0,8.739050601E0
2.300527177E0,-4.278215885E0,2.809919119E0,-6.932622910E0,8.617426357E0
2.305538792E0,-3.542851925E0,2.510440111E0,-6.802019119E0,8.069793889E0
2.310550247E0,-2.676491022E0,2.319884062E0,-6.224647999E0,7.161823019E0
2.315561937E0,-1.802935958E0,2.125662088E0,-5.371605873E0,6.051707779E0
2.320573555E0,-9.143720269E-1,1.913249016E0,-4.399033070E0,4.883450619E0
2.325585217E0,-6.260299683E-2,1.672827959E0,-3.445842028E0,3.830939806E0
2.330596680E0,6.911169887E-1,1.365859032E0,-2.581562042E0,3.001279088E0
2.335608376E0,1.278167963E0,9.753689766E-1,-1.971876979E0,2.544279230E0
2.340619993E0,1.620843053E0,5.489190221E-1,-1.538722038E0,2.301327835E0
2.345631459E0,1.837340951E0,1.049629971E-1,-1.192646980E0,2.192999275E0
2.350643072E0,1.858659983E0,-3.762229979E-1,-9.513900280E-1,2.121627597E0
2.355654759E0,1.718060017E0,-8.808879852E-1,-8.021010160E-1,2.090707991E0
2.360666223E0,1.538063049E0,-1.362002969E0,-7.706369758E-1,2.194213157E0
2.365677927E0,1.312335014E0,-1.796054959E0,-7.815189958E-1,2.357712567E0
2.370689545E0,9.999359846E-1,-2.161561966E0,-8.774610162E-1,2.538141040E0
2.375701235E0,6.629329920E-1,-2.468100071E0,-1.113482952E0,2.787623073E0
2.380712708E0,2.625989914E-1,-2.689269066E0,-1.475620031E0,3.078730390E0
2.385724322E0,-1.777549982E-1,-2.810585022E0,-1.943050027E0,3.421465828E0
2.390735785E0,-5.796769857E-1,-2.736169100E0,-2.435314894E0,3.708558397E0
2.395747399E0,-1.000686049E0,-2.528055906E0,-2.936933041E0,4.002251231E0
2.400759091E0,-1.455404043E0,-2.207592010E0,-3.413348913E0,4.317709372E0
2.405770569E0,-1.891433001E0,-1.798535943E0,-3.829893112E0,4.634687863E0
2.410782182E0,-2.234103918E0,-1.358759046E0,-4.012533188E0,4.789349543E0
2.415793951E0,-2.523647070E0,-9.086120129E-1,-4.057468891E0,4.863889814E0
2.420805574E0,-2.782680988E0,-4.982230067E-1,-3.996471882E0,4.895235148E0
2.425817035E0,-2.970146894E0,-1.540070027E-1,-3.826937914E0,4.846745767E0
2.430828639E0,-3.020024061E0,1.189920008E-1,-3.543497086E0,4.657367929E0
2.435840331E0,-2.988491058E0,3.532699943E-1,-3.295346022E0,4.462643151E0
2.440851790E0,-2.829202890E0,5.445809960E-1,-3.001192093E0,4.160301844E0
2.445863480E0,-2.597219944E0,6.426280141E-1,-2.643496037E0,3.761195754E0
2.450875097E0,-2.302242041E0,6.689199805E-1,-2.252818108E0,3.289827014E0
2.455886554E0,-1.920771003E0,6.135320067E-1,-1.833294988E0,2.725207016E0
2.460898244E0,-1.515347004E0,4.896279871E-1,-1.469048023E0,2.166590456E0
2.465909862E0,-1.121811986E0,3.423289955E-1,-1.174939036E0,1.660160538E0
2.470921323E0,-7.215399742E-1,1.761820018E-1,-9.375630021E-1,1.196112208E0
2.475933013E0,-3.592959940E-1,2.455599979E-2,-7.440869808E-1,8.266571499E-1
2.480944631E0,-1.314800046E-2,-1.150019988E-1,-5.771939754E-1,5.886860071E-1
2.485956340E0,3.011449873E-1,-2.353350073E-1,-4.524529874E-1,5.922706939E-1
2.490967804E0,5.358560085E-1,-3.674890101E-1,-3.340399861E-1,7.305973903E-1
2.495979398E0,7.398359776E-1,-5.042750239E-1,-2.585900128E-1,9.319438654E-1
2.500990862E0,8.932160139E-1,-6.503919959E-1,-1.505140066E-1,1.115122891E0
2.506002576E0,9.929339886E-1,-8.201789856E-1,-7.330899686E-2,1.289955690E0
2.511014193E0,1.040596962E0,-9.944599867E-1,2.052499913E-2,1.439518662E0
2.516025884E0,1.077391982E0,-1.154770017E0,1.096929982E-1,1.583129757E0
2.521037362E0,1.069576025E0,-1.300758958E0,2.046969980E-1,1.696427894E0
2.526048976E0,1.029183030E0,-1.420469999E0,2.675360143E-1,1.774409267E0
2.531060677E0,1.023157001E0,-1.513898969E0,2.934809923E-1,1.850640816E0
2.536072140E0,1.042050958E0,-1.590626955E0,2.155809999E-1,1.913750108E0
2.541083749E0,1.066720009E0,-1.641073942E0,9.353899956E-2,1.959531782E0
2.546095441E0,1.099607944E0,-1.665230036E0,-1.063880026E-1,1.998361106E0
2.551106905E0,1.102599978E0,-1.663089991E0,-3.030819893E-1,2.018279892E0
2.556118509E0,1.080345035E0,-1.644220948E0,-5.038340092E-1,2.030875828E0
2.561130201E0,1.047193050E0,-1.601431966E0,-7.161759734E-1,2.043062811E0
2.566141665E0,9.623969793E-1,-1.539500952E0,-8.925510049E-1,2.023096247E0
2.571153345E0,8.306139708E-1,-1.465600967E0,-1.023679018E0,1.971249476E0
2.576164963E0,7.042480111E-1,-1.374930978E0,-1.133860946E0,1.916257055E0
2.581176410E0,5.424979925E-1,-1.300991058E0,-1.177806973E0,1.836875356E0
2.586188101E0,3.859210014E-1,-1.248564959E0,-1.162878990E0,1.749324733E0
2.591199708E0,2.534210086E-1,-1.200901985E0,-1.134549022E0,1.671403383E0
2.596211170E0,1.903419942E-1,-1.148427963E0,-1.052142024E0,1.569114304E0
2.601222860E0,1.631820053E-1,-1.119866967E0,-9.633920193E-1,1.486221576E0
2.606234463E0,1.551879942E-1,-1.096073031E0,-8.945710063E-1,1.423276744E0
2.611246154E0,1.567869931E-1,-1.067479014E0,-8.001539707E-1,1.343257229E0
2.616257626E0,1.465020031E-1,-1.036483049E0,-7.039499879E-1,1.261469593E0
2.621269316E0,1.361719966E-1,-9.960399866E-1,-5.788019896E-1,1.160021642E0
2.626280934E0,1.379950047E-1,-9.555019736E-1,-4.442549944E-1,1.062727219E0
2.631292395E0,1.076529995E-1,-8.957750201E-1,-2.957620025E-1,9.494615406E-1
2.636304096E0,5.552899837E-2,-8.551769853E-1,-1.636559963E-1,8.724645729E-1
2.641315713E0,-2.702400088E-2,-8.313410282E-1,-2.170000039E-2,8.320631538E-1
2.646327175E0,-9.738899767E-2,-8.122959733E-1,1.067970023E-1,8.250545223E-1
2.651338792E0,-1.768860072E-1,-7.860820293E-1,1.991769969E-1,8.299910195E-1
2.656350484E0,-2.282100022E-1,-7.622560263E-1,2.892580032E-1,8.466311163E-1
2.661361948E0,-2.824319899E-1,-7.623500228E-1,3.215090036E-1,8.742502077E-1
2.666373561E0,-2.792559862E-1,-7.695980072E-1,3.302600086E-1,8.828004711E-1
2.671385254E0,-2.690950036E-1,-7.744359970E-1,2.953810096E-1,8.714431566E-1
2.676396717E0,-2.244489938E-1,-7.649059892E-1,2.182620019E-1,8.264967178E-1
2.681408408E0,-1.534280032E-1,-7.457990050E-1,1.488599926E-1,7.758322019E-1
2.686420025E0,-8.226799965E-2,-7.219009995E-1,5.434799939E-2,7.286033090E-1
2.691431501E0,-2.263800055E-2,-6.836420298E-1,-3.684400022E-2,6.850083096E-1
2.696443115E0,3.282200173E-2,-6.286159754E-1,-1.225889996E-1,6.412982076E-1
2.701454802E0,6.331899762E-2,-5.783519745E-1,-1.730190068E-1,6.069891915E-1
2.706466266E0,7.656200230E-2,-5.184860229E-1,-2.172639966E-1,5.673562729E-1
2.711477884E0,8.701699972E-2,-4.801140130E-1,-2.439299971E-1,5.455119313E-1
2.716489576E0,6.916499883E-2,-4.608469903E-1,-2.581340075E-1,5.327259252E-1
2.721501245E0,5.408700183E-2,-4.343650043E-1,-2.325379997E-1,4.956533890E-1
2.726512708E0,4.169800133E-2,-4.341650009E-1,-2.493620068E-1,5.024135565E-1
2.731524399E0,1.570699923E-2,-4.697999954E-1,-2.724730074E-1,5.433233708E-1
2.736535799E0,-4.834000021E-3,-5.077810287E-1,-2.808670104E-1,5.803026953E-1
2.741547490E0,-3.611300141E-2,-5.456889868E-1,-3.097699881E-1,6.285205364E-1
2.746559119E0,-8.459799737E-2,-5.572010279E-1,-3.285279870E-1,6.523499405E-1
2.751570811E0,-1.587969959E-1,-5.686079860E-1,-3.701069951E-1,6.967859897E-1
2.756582275E0,-2.298000008E-1,-5.918650031E-1,-4.061140120E-1,7.536848234E-1
2.761593965E0,-3.067420125E-1,-6.221550107E-1,-4.484539926E-1,8.260015152E-1
2.766605583E0,-3.730590045E-1,-6.523100138E-1,-4.647719860E-1,8.835691110E-1
2.771617059E0,-4.359610081E-1,-6.799179912E-1,-4.838109910E-1,9.415006906E-1
2.776628749E0,-4.539799988E-1,-6.810600162E-1,-5.033869743E-1,9.609053184E-1
2.781640367E0,-4.333719909E-1,-6.318669915E-1,-4.957810044E-1,9.126149143E-1
2.786651823E0,-4.009430110E-1,-6.089329720E-1,-4.873250127E-1,8.769494458E-1
2.791663437E0,-3.552350104E-1,-5.740169883E-1,-4.640470147E-1,8.191624059E-1
2.796675129E0,-2.878729999E-1,-5.607089996E-1,-4.242349863E-1,7.597636277E-1
2.801686598E0,-1.748390049E-1,-5.021790266E-1,-3.336580098E-1,6.277580106E-1
2.806698211E0,-6.226599962E-2,-4.248329997E-1,-2.237470001E-1,4.841723375E-1
2.811709903E0,9.326700121E-2,-3.144289851E-1,-7.816000283E-2,3.371547215E-1
2.816721362E0,2.411880046E-1,-1.924459934E-1,3.574600071E-2,3.106201708E-1
2.821732975E0,4.232270122E-1,-9.949900210E-2,1.061159968E-1,4.475285019E-1
2.826744668E0,5.941600204E-1,5.326000042E-3,5.859600008E-2,5.970661498E-1
2.831756131E0,7.753660083E-1,1.078730002E-1,-9.145999700E-2,7.881585894E-1
2.836767745E0,9.648460150E-1,2.156369984E-1,-3.898720145E-1,1.062745188E0
2.841779432E0,1.139907002E0,2.428379953E-1,-8.142169714E-1,1.421726958E0
2.846790895E0,1.276196003E0,2.041829973E-1,-1.296623945E0,1.830737717E0
2.851802495E0,1.417799950E0,1.287530065E-1,-1.829679012E0,2.318288015E0
2.856814187E0,1.523798943E0,5.978700146E-2,-2.290254116E0,2.751508971E0
2.861825864E0,1.591596007E0,-7.670000196E-3,-2.577083111E0,3.028959234E0
2.866837328E0,1.557790995E0,-1.003009975E-1,-2.690995932E0,3.110985724E0
2.871848941E0,1.390414953E0,-2.449350059E-1,-2.655405998E0,3.007395537E0
2.876860639E0,1.125782967E0,-4.160079956E-1,-2.451273918E0,2.729321117E0
2.881872331E0,8.621780276E-1,-5.424540043E-1,-2.156353951E0,2.384841642E0
2.886883795E0,5.787450075E-1,-6.822929978E-1,-1.796751976E0,2.007183893E0
2.891895398E0,4.153169990E-1,-7.716159821E-1,-1.326321006E0,1.589656203E0
2.896906862E0,1.736540049E-1,-8.239089847E-1,-1.142902017E0,1.419579779E0
2.901918485E0,3.003299981E-2,-9.423419833E-1,-8.610560298E-1,1.276842935E0
2.906930177E0,-1.140400022E-2,-8.464689851E-1,-7.141659856E-1,1.107552639E0
2.911941870E0,-7.821299881E-2,-6.484439969E-1,-6.326929927E-1,9.093389430E-1
2.916953251E0,-2.761049867E-1,-3.418099880E-1,-3.402130008E-1,5.557093822E-1
2.921964942E0,-5.923429728E-1,8.110400289E-2,-8.032099903E-2,6.032408470E-1
2.926976429E0,-1.045815945E0,5.626749992E-1,3.944289982E-1,1.251362609E0
2.931988043E0,-1.599396944E0,1.137696028E0,1.089285970E0,2.244764299E0
2.936999735E0,-2.150300980E0,1.716156960E0,1.887313008E0,3.336306252E0
2.942011184E0,-2.754489899E0,2.257476091E0,2.418462992E0,4.304924639E0
2.947022798E0,-3.360913992E0,2.742414951E0,2.442689896E0,4.978284499E0
2.952034500E0,-3.873524904E0,3.091669083E0,1.938277006E0,5.321609780E0
2.957045964E0,-4.258818150E0,3.285578012E0,1.088112950E0,5.487854289E0
2.962057654E0,-4.071963787E0,3.381001949E0,1.852120012E-1,5.295882056E0
2.967069276E0,-3.587086916E0,3.535396099E0,-8.237360120E-1,5.103406621E0
2.972080738E0,-2.801984072E0,3.791578054E0,-1.490391016E0,4.944536810E0
2.977092428E0,-1.868970990E0,4.053886890E0,-1.790382028E0,4.809627770E0
2.982104046E0,-9.303960204E-1,4.061717987E0,-1.791757941E0,4.535811535E0
2.987115507E0,-5.886700004E-2,3.848850965E0,-1.476003051E0,4.122584636E0
2.992127197E0,7.304779887E-1,3.434742928E0,-1.030179024E0,3.659552690E0
2.997138815E0,1.487401009E0,2.965606928E0,-5.843930244E-1,3.368783374E0
3.002150276E0,2.197416067E0,2.441646099E0,-1.733330041E-1,3.289425083E0
3.007161967E0,2.535123110E0,1.788763046E0,1.530440003E-1,3.106436042E0
3.012173564E0,2.444794893E0,1.047667980E0,1.817599982E-1,2.666020811E0
3.017185254E0,1.983000040E0,2.476889938E-1,8.359999955E-2,2.000156983E0
3.022196718E0,1.430549979E0,-5.291079879E-1,-1.153630018E-1,1.529619929E0
3.027208327E0,9.659019709E-1,-1.236186981E0,-3.799119890E-1,1.614143113E0
3.032219791E0,4.400179982E-1,-1.830775976E0,-6.983169913E-1,2.008233835E0
3.037231490E0,3.188199922E-2,-2.303293943E0,-9.774730206E-1,2.502325510E0
3.042243108E0,-2.567690015E-1,-2.615415096E0,-1.147861004E0,2.867736273E0
3.047254555E0,-4.051040113E-1,-2.731163025E0,-1.122864008E0,2.980634884E0
3.052266246E0,-4.520339966E-1,-2.710309029E0,-9.356210232E-1,2.902670574E0
3.057277863E0,-5.440930128E-1,-2.579128981E0,-6.337460279E-1,2.711010427E0
3.062289543E0,-7.491250038E-1,-2.335207939E0,-1.284289956E-1,2.455784681E0
3.067301007E0,-1.008167982E0,-2.028762102E0,5.018240213E-1,2.320367578E0
3.072312620E0,-1.250211000E0,-1.676525950E0,1.020712972E0,2.327148852E0
3.077324313E0,-1.463912964E0,-1.316820025E0,1.406630039E0,2.419847973E0
3.082335776E0,-1.633515000E0,-9.293460250E-1,1.732555985E0,2.556130969E0
3.087347466E0,-1.783210039E0,-5.052959919E-1,2.077318907E0,2.783956882E0
3.092359065E0,-1.895624995E0,-1.019850001E-1,2.396548986E0,3.057325973E0
3.097370526E0,-1.965008020E0,2.590990067E-1,2.707650900E0,3.355556915E0
3.102382217E0,-2.050221920E0,5.718799829E-1,3.093380928E0,3.754925059E0
3.107393824E0,-2.175766945E0,7.194769979E-1,3.402326107E0,4.102125289E0
3.112405514E0,-2.262845039E0,7.329970002E-1,3.558667898E0,4.280405294E0
3.117416978E0,-2.251890898E0,5.932819843E-1,3.532021046E0,4.230622743E0
3.122428605E0,-2.138344049E0,3.529579937E-1,3.339905024E0,3.981464578E0
3.127440069E0,-1.818196058E0,1.055539995E-1,2.880134106E0,3.407660637E0
3.132451687E0,-1.379907966E0,-1.679009944E-1,2.250902891E0,2.645543529E0
3.137463380E0,-8.806380033E-1,-4.347850084E-1,1.595276952E0,1.873357907E0
3.142474843E0,-3.971669972E-1,-7.005109787E-1,1.066001058E0,1.335969876E0
3.147486467E0,1.007399987E-2,-9.221550226E-1,6.527559757E-1,1.129850315E0
3.152498236E0,4.240800142E-1,-1.117859006E0,3.621299863E-1,1.249236064E0
3.157509823E0,8.850200176E-1,-1.253849983E0,2.503780127E-1,1.555020695E0
3.162521285E0,1.309734941E0,-1.387477040E0,2.816410065E-1,1.928683439E0
3.167532898E0,1.669991016E0,-1.518676043E0,3.773370087E-1,2.288586930E0
3.172544590E0,1.925534010E0,-1.630640984E0,5.092629790E-1,2.574105674E0
3.177556054E0,2.073986053E0,-1.716192007E0,5.800229907E-1,2.753753770E0
3.182567667E0,2.165678024E0,-1.703529954E0,6.187520027E-1,2.824009499E0
3.187579360E0,2.219712973E0,-1.645308971E0,6.207579970E-1,2.831873546E0
3.192590833E0,2.152652025E0,-1.567810059E0,5.859379768E-1,2.726767763E0
3.197602447E0,1.966784000E0,-1.581122994E0,5.401610136E-1,2.580690440E0
3.202614148E0,1.762200952E0,-1.556085944E0,5.622299910E-1,2.417200493E0
3.207625612E0,1.586650968E0,-1.463994980E0,6.015980244E-1,2.241129799E0
3.212637225E0,1.377802968E0,-1.321616054E0,6.963340044E-1,2.032213340E0
3.217648917E0,1.097373962E0,-1.167240024E0,8.078340292E-1,1.794233738E0
3.222660381E0,8.267220259E-1,-9.721429944E-1,9.193009734E-1,1.572782753E0
3.227672009E0,5.487800241E-1,-7.716779709E-1,1.006168962E0,1.381673762E0
3.232683702E0,2.694169879E-1,-5.651630163E-1,1.061089039E0,1.232032750E0
3.237695140E0,-3.707300127E-2,-4.266960025E-1,1.082643032E0,1.164285111E0
3.242706830E0,-2.383009940E-1,-2.658919990E-1,1.074267030E0,1.132049279E0
3.247718477E0,-3.980070055E-1,-1.356309950E-1,1.011361957E0,1.095289163E0
3.252729938E0,-4.757719934E-1,6.736000068E-3,9.024180174E-1,1.020177750E0
3.257741567E0,-5.040630102E-1,1.322470009E-1,7.695119977E-1,9.293640310E-1
3.262753259E0,-5.027580261E-1,2.311809957E-1,6.316980124E-1,8.397932272E-1
3.267764723E0,-4.795320034E-1,3.034299910E-1,4.817250073E-1,7.443652896E-1
3.272776408E0,-4.810110033E-1,3.132669926E-1,3.334159851E-1,6.638328201E-1
3.277788025E0,-4.599649906E-1,2.917079926E-1,1.886750013E-1,5.764196402E-1
3.282799716E0,-4.192819893E-1,2.602210045E-1,6.336700171E-2,4.975215922E-1
3.287811131E0,-3.736769855E-1,2.570669949E-1,-3.648599982E-2,4.550265460E-1
3.292822822E0,-2.789419889E-1,2.414029986E-1,-1.048180014E-1,3.834981803E-1
3.297834280E0,-2.244360000E-1,1.800130010E-1,-1.264210045E-1,3.142586021E-1
3.302845894E0,-2.319049984E-1,3.264800087E-2,-7.256600261E-2,2.451767627E-1
3.307857576E0,-1.881529987E-1,-9.797400236E-2,4.521799833E-2,2.168988783E-1
3.312869268E0,-1.642049998E-1,-2.714610100E-1,2.344119996E-1,3.944659015E-1
3.317880732E0,-1.502339989E-1,-4.446519911E-1,4.234170020E-1,6.321136015E-1
3.322892326E0,-4.644300044E-2,-5.725439787E-1,6.011019945E-1,8.314368092E-1
3.327904018E0,4.943000153E-2,-7.124930024E-1,7.424769998E-1,1.030224101E0
3.332915487E0,1.445219964E-1,-8.477910161E-1,8.444439769E-1,1.205289112E0
3.337927177E0,2.041099966E-1,-9.783260226E-1,8.829110265E-1,1.333534618E0
3.342938825E0,2.918440104E-1,-1.100877047E0,9.523450136E-1,1.484609115E0
3.347950286E0,3.625110090E-1,-1.158907056E0,9.630069733E-1,1.549794253E0
3.352961904E0,3.633899987E-1,-1.214666009E0,9.796860218E-1,1.602264181E0
3.357973596E0,3.996500075E-1,-1.201164961E0,1.011924982E0,1.620650968E0
3.362985051E0,3.995110095E-1,-1.163882971E0,1.031187057E0,1.605484153E0
3.367996664E0,3.971239924E-1,-1.075281978E0,1.028269053E0,1.539894815E0
3.373008356E0,3.611260056E-1,-1.013077021E0,9.647650123E-1,1.444821294E0
3.378019825E0,3.388949931E-1,-9.175840020E-1,8.959289789E-1,1.326461063E0
3.383031438E0,3.807860017E-1,-7.701470256E-1,7.826420069E-1,1.162175947E0
3.388043131E0,3.717179894E-1,-6.542980075E-1,6.326370239E-1,9.831122776E-1
3.393054579E0,3.713530004E-1,-5.604270101E-1,5.021619797E-1,8.391353516E-1
3.398066192E0,2.337239981E-1,-5.643159747E-1,4.107550085E-1,7.360700398E-1
3.403077885E0,-9.332000278E-3,-6.102430224E-1,4.217999876E-1,7.418887128E-1
3.408089363E0,-1.928820014E-1,-6.241999865E-1,5.020310283E-1,8.239321834E-1
3.413101054E0,-2.636319995E-1,-5.828940272E-1,5.639309883E-1,8.528103175E-1
3.418112671E0,-1.928790063E-1,-4.464589953E-1,5.738220215E-1,7.521965554E-1
3.423124109E0,-3.339299932E-2,-2.656460106E-1,5.264530182E-1,5.906231250E-1
3.428135722E0,1.734800041E-1,-7.421500236E-2,3.929750025E-1,4.359272084E-1
3.433147414E0,2.924639881E-1,6.612200290E-2,2.495940030E-1,3.901339128E-1
3.438158887E0,3.708220124E-1,1.437579989E-1,1.166699976E-1,4.144722132E-1
3.443170500E0,4.424940050E-1,2.020680010E-1,4.693999887E-2,4.887082821E-1
3.448182188E0,4.499059916E-1,2.080039978E-1,2.644800022E-2,4.963673650E-1
3.453193651E0,4.715330005E-1,1.880269945E-1,6.999599934E-2,5.124421539E-1
3.458205356E0,5.513079762E-1,1.993730068E-1,1.085859984E-1,5.962222736E-1
3.463216974E0,5.599049926E-1,1.681669950E-1,1.704860032E-1,6.089656938E-1
3.468228435E0,5.365769863E-1,1.160330027E-1,2.341880053E-1,5.968438169E-1
3.473240130E0,6.053599715E-1,7.853700221E-2,2.883740067E-1,6.751209696E-1
3.478251747E0,6.335150003E-1,5.073599890E-2,2.593240142E-1,6.864141181E-1
3.483263209E0,5.967429876E-1,-5.559000187E-3,2.122370005E-1,6.333858541E-1
3.488274813E0,6.129099727E-1,-5.936099961E-2,1.825630069E-1,6.422706706E-1
3.493286505E0,5.597180128E-1,-1.320309937E-1,1.629740000E-1,5.977264942E-1
3.498297974E0,4.530059993E-1,-2.138130069E-1,1.693319976E-1,5.287757207E-1
3.503309587E0,3.522129953E-1,-2.615709901E-1,2.172539979E-1,4.895637614E-1
3.508321275E0,2.547569871E-1,-2.824980021E-1,2.707540095E-1,4.669196690E-1
3.513332967E0,7.916499674E-2,-3.195019960E-1,3.319810033E-1,4.675040200E-1
3.518344445E0,-1.120750010E-1,-3.270869851E-1,4.031499922E-1,5.311088569E-1
3.523356058E0,-2.654330134E-1,-3.196179867E-1,5.049790144E-1,6.539221261E-1
3.528367521E0,-4.192120135E-1,-3.186790049E-1,5.925189853E-1,7.927003017E-1
3.533379217E0,-5.410749912E-1,-3.029029965E-1,6.546779871E-1,9.017292489E-1
3.538390834E0,-6.807280183E-1,-3.249509931E-1,6.919680238E-1,1.023622747E0
3.543402513E0,-6.662030220E-1,-2.992179990E-1,6.891949773E-1,1.004165123E0
3.548413977E0,-5.808299780E-1,-2.548150122E-1,6.338120103E-1,8.966670609E-1
3.553425576E0,-4.984619915E-1,-2.347200066E-1,5.898100138E-1,8.071144224E-1
3.558437269E0,-4.349080026E-1,-2.628630102E-1,5.287799835E-1,7.333827131E-1
3.563448732E0,-3.594529927E-1,-2.700319886E-1,4.374110103E-1,6.272576191E-1
3.568460351E0,-2.907220125E-1,-3.039839864E-1,3.629490137E-1,5.555695628E-1
3.573471814E0,-2.401620001E-1,-3.239080012E-1,3.094890118E-1,5.083085952E-1
3.578483505E0,-2.232339978E-1,-3.558790088E-1,2.974120080E-1,5.147204962E-1
3.583495122E0,-2.296729982E-1,-3.759309947E-1,2.837010026E-1,5.239847877E-1
3.588506812E0,-2.610599995E-1,-3.865689933E-1,2.382840067E-1,5.238007043E-1
3.593518290E0,-3.027389944E-1,-3.947499990E-1,2.363280058E-1,5.507534719E-1
3.598529980E0,-3.752360046E-1,-3.980489969E-1,2.277729958E-1,5.925585209E-1
3.603541598E0,-4.474369884E-1,-4.083220065E-1,2.357999980E-1,6.500218139E-1
3.608553273E0,-5.215489864E-1,-4.113279879E-1,2.157910019E-1,6.984051943E-1
3.613564736E0,-5.998499990E-1,-4.405629933E-1,1.988449991E-1,7.703603741E-1
3.618576374E0,-6.914129853E-1,-4.743210077E-1,2.080450058E-1,8.638952825E-1
3.623588066E0,-7.611430287E-1,-5.077840090E-1,2.309760004E-1,9.436806784E-1
3.628599530E0,-8.144540191E-1,-5.313420296E-1,2.695919871E-1,1.009128109E0
3.633610929E0,-8.520169854E-1,-5.425680280E-1,3.330669999E-1,1.063600787E0
3.638622620E0,-8.490049839E-1,-5.413839817E-1,4.347119927E-1,1.096759133E0
3.643634312E0,-8.532559872E-1,-5.230910182E-1,5.320630074E-1,1.133472998E0
3.648646004E0,-9.042239785E-1,-4.950740039E-1,5.838590264E-1,1.184740746E0
3.653657362E0,-7.276399732E-1,-3.603819907E-1,5.431889892E-1,9.769285479E-1
3.658669052E0,-2.651540041E-1,-7.915399969E-2,5.018420219E-1,5.730771471E-1
3.663680669E0,-5.852599815E-2,1.765249968E-1,3.833509982E-1,4.260802210E-1
3.668692107E0,9.246599674E-2,4.327439964E-1,1.922750026E-1,4.824800551E-1
3.673703798E0,2.476599962E-1,7.059410214E-1,-6.208100170E-2,7.506945119E-1
3.678715415E0,3.280729949E-1,9.362130165E-1,-3.848899901E-1,1.064080357E0
3.683727105E0,3.595969975E-1,1.111893058E0,-8.611009717E-1,1.451589149E0
3.688738569E0,3.766689897E-1,1.246479034E0,-1.406187057E0,1.916494600E0
3.693750172E0,3.559339941E-1,1.361668944E0,-1.982602000E0,2.431366285E0
3.698761864E0,2.861750126E-1,1.371554971E0,-2.512479067E0,2.876736039E0
3.703773319E0,1.271519959E-1,1.295496941E0,-2.970771074E0,3.243448894E0
3.708784932E0,-6.575399637E-2,1.169617057E0,-3.272721052E0,3.476065410E0
3.713796602E0,-2.159069926E-1,1.010844946E0,-3.431639910E0,3.583933008E0
3.718808065E0,-3.244450092E-1,8.106759787E-1,-3.375623941E0,3.486731578E0
3.723819674E0,-3.695130050E-1,6.229310036E-1,-3.138851881E0,3.221331096E0
3.728831366E0,-4.161300063E-1,4.261940122E-1,-2.773240089E0,2.836488342E0
3.733842830E0,-5.740100145E-1,2.327360064E-1,-2.262063026E0,2.345332105E0
3.738854448E0,-7.294149995E-1,1.120510027E-1,-1.600803018E0,1.762717212E0
3.743866140E0,-8.185179830E-1,1.048979983E-1,-7.708920240E-1,1.129269583E0
3.748877618E0,-9.094009995E-1,1.944990009E-1,1.451009959E-1,9.412196015E-1
3.753889308E0,-9.468349814E-1,4.060190022E-1,7.940989733E-1,1.300746359E0
3.758900926E0,-9.881780148E-1,6.260489821E-1,1.157505989E0,1.645677135E0
3.763912397E0,-1.016294003E0,8.456619978E-1,1.323457956E0,1.870705395E0
3.768924087E0,-1.021314979E0,1.077288032E0,1.352650046E0,2.008306734E0
3.773935705E0,-9.550359845E-1,1.203631043E0,1.367609024E0,2.056982222E0
3.778947151E0,-9.700019956E-1,1.318022966E0,1.289659977E0,2.083581356E0
3.783958765E0,-9.894559979E-1,1.408429027E0,1.145714045E0,2.067693441E0
3.788970457E0,-8.934190273E-1,1.491569996E0,8.451660275E-1,1.933205686E0
3.793981911E0,-6.720870137E-1,1.538701057E0,3.763270080E-1,1.720733540E0
3.798993524E0,-3.706969917E-1,1.525894046E0,-2.225060016E-1,1.585962742E0
3.804005216E0,-1.279339939E-1,1.457983971E0,-8.416659832E-1,1.688338234E0
3.809016695E0,8.253499866E-2,1.337391973E0,-1.419147968E0,1.951771060E0
3.814028308E0,3.346489966E-1,1.176102042E0,-2.046215057E0,2.383736988E0
3.819039996E0,4.889270067E-1,9.849870205E-1,-2.514023066E0,2.744004560E0
3.824051459E0,6.721919775E-1,8.144549727E-1,-2.833925009E0,3.024286678E0
3.829063073E0,8.647649884E-1,6.673719883E-1,-3.075326920E0,3.263562397E0
3.834074755E0,1.003286958E0,5.083109736E-1,-3.251956940E0,3.440957527E0
3.839086447E0,1.121436000E0,3.424940109E-1,-3.325963020E0,3.526606139E0
3.844097911E0,1.177556038E0,1.750289947E-1,-3.330296040E0,3.536685607E0
3.849109524E0,1.142554045E0,1.707999967E-3,-3.127168894E0,3.329356988E0
3.854121216E0,1.144212008E0,-9.359899908E-2,-2.790043116E0,3.017005548E0
3.859132704E0,1.162889004E0,-1.540649980E-1,-2.404161930E0,2.675077839E0
3.864144394E0,1.149211049E0,-2.660200000E-1,-2.023910999E0,2.342577300E0
3.869156036E0,1.159721971E0,-3.913320005E-1,-1.644598007E0,2.050072776E0
3.874167497E0,1.191776991E0,-4.871050119E-1,-1.310263991E0,1.836952753E0
3.879179188E0,1.191521049E0,-6.037539840E-1,-1.051987052E0,1.700269990E0
3.884190805E0,1.141543984E0,-7.437480092E-1,-8.256480098E-1,1.593103388E0
3.889202495E0,1.106045008E0,-8.928679824E-1,-6.603620052E-1,1.567362999E0
3.894213959E0,1.133599997E0,-1.015336990E0,-5.588570237E-1,1.621196882E0
3.899225572E0,1.124253035E0,-1.158604980E0,-4.944199920E-1,1.688419827E0
3.904237046E0,1.110331059E0,-1.306738019E0,-4.139640033E-1,1.764019701E0
3.909248736E0,1.130350947E0,-1.390349984E0,-3.651739955E-1,1.828693082E0
3.914260368E0,1.112588048E0,-1.462105989E0,-3.549210131E-1,1.871249586E0
3.919271829E0,1.111966014E0,-1.522009015E0,-3.831480145E-1,1.923481806E0
3.924283505E0,1.159553051E0,-1.452801943E0,-3.565930128E-1,1.892711108E0
3.929295123E0,1.162107944E0,-1.352589965E0,-4.092639983E-1,1.829615126E0
3.934306573E0,1.215177059E0,-1.192648053E0,-5.101730227E-1,1.777453565E0
3.939318187E0,1.144714952E0,-1.018790007E0,-6.088140011E-1,1.648926889E0
3.944329879E0,9.985129833E-1,-8.617699742E-1,-7.557430267E-1,1.520139200E0
3.949341343E0,9.177230000E-1,-6.808099747E-1,-8.992230296E-1,1.454070075E0
3.954352956E0,9.003369808E-1,-4.877940118E-1,-1.077165008E0,1.486214699E0
3.959364725E0,9.444779754E-1,-3.040589988E-1,-1.222139955E0,1.574203478E0
3.964376343E0,9.997389913E-1,-1.533959955E-1,-1.298637986E0,1.646046476E0
3.969387804E0,1.031046987E0,-3.576099873E-2,-1.313474059E0,1.670194851E0
3.974399423E0,1.013566017E0,3.683900088E-2,-1.212699056E0,1.580921308E0
3.979411115E0,9.394009709E-1,5.468299985E-2,-1.071501017E0,1.426036060E0
3.984422578E0,8.380540013E-1,4.396200180E-2,-8.700519800E-1,1.208824890E0
3.989434197E0,7.427070141E-1,-2.892700024E-2,-6.448569894E-1,9.840177930E-1
3.994445889E0,6.182569861E-1,-1.497749984E-1,-4.197340012E-1,7.621357378E-1
3.999457362E0,5.143179893E-1,-2.827289999E-1,-1.762350053E-1,6.127947932E-1
4.004469052E0,3.954960108E-1,-4.207029939E-1,7.125300169E-2,5.817947180E-1
4.009480679E0,3.339520097E-1,-5.899339914E-1,2.830789983E-1,7.346290073E-1
4.014492141E0,3.024060130E-1,-7.329360247E-1,4.463750124E-1,9.098875011E-1
4.019503831E0,2.026939988E-1,-8.211190104E-1,5.303300023E-1,9.982841268E-1
4.024515458E0,1.132550016E-1,-8.855559826E-1,5.447289944E-1,1.045832573E0
4.029526919E0,4.977500066E-2,-9.453229904E-1,5.219720006E-1,1.081003181E0
4.034538533E0,-2.105499990E-2,-9.693210125E-1,4.748409986E-1,1.079583490E0
4.039550225E0,-8.847700059E-2,-9.957230091E-1,4.895339906E-1,1.113075028E0
4.044561917E0,-1.873169988E-1,-1.036440969E0,5.551270247E-1,1.190572783E0
4.049573372E0,-2.532609999E-1,-1.062749982E0,6.142119765E-1,1.253329570E0
4.054584985E0,-3.077760041E-1,-1.055498958E0,6.930519938E-1,1.299663489E0
4.059596678E0,-3.675499856E-1,-1.017086983E0,7.556949854E-1,1.319330828E0
4.064608141E0,-3.715910017E-1,-9.627599716E-1,7.645390034E-1,1.284331158E0
4.069619769E0,-3.595280051E-1,-8.844249845E-1,7.018390298E-1,1.184924455E0
4.074631461E0,-3.549279869E-1,-8.299739957E-1,6.460559964E-1,1.110053629E0
4.079642924E0,-2.069759965E-1,-7.943530083E-1,5.806999803E-1,1.005508942E0
4.084654629E0,-9.107100219E-2,-7.537369728E-1,5.084689856E-1,9.137582070E-1
4.089666015E0,-8.260700107E-2,-7.442139983E-1,3.947130144E-1,8.464494997E-1
4.094677721E0,-9.942500293E-2,-7.371090055E-1,2.755689919E-1,7.931918346E-1
4.099689336E0,-1.178769991E-1,-7.563279867E-1,1.815959960E-1,7.867045927E-1
4.104701028E0,-1.633799970E-1,-7.445160151E-1,1.767520010E-1,7.824566378E-1
4.109712487E0,-5.019400120E-1,-7.596960068E-1,4.742969871E-1,1.026664225E0
4.114724177E0,-1.125520021E-1,-6.520130038E-1,3.751470149E-1,7.606077787E-1
4.119735795E0,5.364200100E-2,-5.487250090E-1,2.065750062E-1,5.887697623E-1
4.124747275E0,1.221679971E-1,-4.499889910E-1,3.500400111E-2,4.675899824E-1
4.129758889E0,2.260729969E-1,-3.365789950E-1,-1.332319975E-1,4.267847056E-1
4.134770581E0,2.602660060E-1,-2.325450033E-1,-2.686710060E-1,4.404539498E-1
4.139782273E0,2.130759954E-1,-1.596100032E-1,-3.333579898E-1,4.266195991E-1
4.144793737E0,5.910500139E-2,-8.215600252E-2,-3.042840064E-1,3.206739255E-1
4.149805350E0,-1.475829929E-1,-2.430300042E-2,-1.844609976E-1,2.374810208E-1
4.154817042E0,-3.660469949E-1,6.645000074E-3,6.986000109E-3,3.661739514E-1
4.159828492E0,-5.751140118E-1,3.501000116E-3,2.239049971E-1,6.171724486E-1
4.164840105E0,-7.959449887E-1,-5.762000009E-2,4.102579951E-1,8.973071448E-1
4.169851583E0,-9.585329890E-1,-1.573729962E-1,5.369219780E-1,1.109881508E0
4.174863273E0,-1.043761015E0,-2.524749935E-1,6.268579960E-1,1.243435413E0
4.179874891E0,-1.035384059E0,-3.594479859E-1,6.535649896E-1,1.276076095E0
4.184886333E0,-1.006011009E0,-4.446479976E-1,5.795390010E-1,1.243235877E0
4.189898024E0,-8.982809782E-1,-5.031999946E-1,4.891229868E-1,1.139894840E0
4.194909617E0,-7.358490229E-1,-4.944050014E-1,3.988389969E-1,9.721021733E-1
4.199921307E0,-5.203040242E-1,-4.541830122E-1,3.317010105E-1,7.661749452E-1
4.204932771E0,-3.319739997E-1,-4.329429865E-1,3.378109932E-1,6.416873329E-1
4.209944446E0,-1.956759989E-1,-4.690450132E-1,3.475070000E-1,6.156731568E-1
4.214956064E0,-2.645199932E-2,-4.860379994E-1,4.742409885E-1,6.795860213E-1
4.219967754E0,1.818639934E-1,-4.097709954E-1,6.495419741E-1,7.892347920E-1
4.224979217E0,3.218570054E-1,-3.598920107E-1,7.816129923E-1,9.187127195E-1
4.229990831E0,3.374510109E-1,-4.704110026E-1,8.484029770E-1,1.027106279E0
4.235002294E0,3.851819932E-1,-5.880950093E-1,8.728299737E-1,1.120737735E0
4.240013985E0,4.154120088E-1,-6.244170070E-1,9.095450044E-1,1.178870583E0
4.245025602E0,4.472459853E-1,-5.984640121E-1,8.979880214E-1,1.168148377E0
4.250037064E0,4.923860133E-1,-5.795890093E-1,8.372370005E-1,1.131076125E0
4.255048754E0,4.647130072E-1,-5.941740274E-1,7.493659854E-1,1.063273405E0
4.260060371E0,3.774259984E-1,-7.403839827E-1,6.672689915E-1,1.065770488E0
4.265072062E0,3.755140007E-1,-9.224269986E-1,6.048039794E-1,1.165191051E0
4.270083525E0,4.414809942E-1,-1.023136020E0,5.875570178E-1,1.259736493E0
4.275095139E0,5.570960045E-1,-1.102295041E0,5.431140065E-1,1.349215750E0
4.280106602E0,6.746280193E-1,-1.140771031E0,4.597069919E-1,1.402787236E0
4.285118523E0,7.700920105E-1,-1.205564022E0,3.756369948E-1,1.479029908E0
4.290129977E0,9.203559756E-1,-1.062172055E0,4.080869853E-1,1.463488840E0
4.295141590E0,8.913249969E-1,-9.900190234E-1,4.210619926E-1,1.397100969E0
4.300153274E0,7.802000046E-1,-9.514319897E-1,4.650030136E-1,1.315356484E0
4.305164737E0,6.868630052E-1,-9.153100252E-1,5.435699821E-1,1.266902346E0
4.310176355E0,6.036959887E-1,-8.505370021E-1,6.533219814E-1,1.230728098E0
4.315188048E0,4.977520108E-1,-8.025659919E-1,7.749519944E-1,1.221646360E0
4.320199511E0,4.830850065E-1,-7.162119746E-1,8.342509866E-1,1.200960209E0
4.325211120E0,5.081009865E-1,-5.985900164E-1,8.241339922E-1,1.138276529E0
4.330222583E0,4.624550045E-1,-4.761050045E-1,7.281640172E-1,9.852732831E-1
4.335234284E0,4.433259964E-1,-2.602330148E-1,5.559170246E-1,7.571676824E-1
4.340245901E0,4.942199886E-1,5.865500122E-2,4.486939907E-1,6.700896235E-1
4.345257591E0,5.480960011E-1,3.226059973E-1,3.018159866E-1,7.039721200E-1
4.350269050E0,6.304690242E-1,5.866820216E-1,1.554480046E-1,8.751291717E-1
4.355280740E0,6.220440269E-1,7.861940265E-1,8.587600291E-2,1.006188107E0
4.360292373E0,4.830619991E-1,8.851079941E-1,2.584899962E-2,1.008678951E0
4.365303834E0,3.797670007E-1,9.289109707E-1,-7.377299666E-2,1.006250973E0
4.370315519E0,5.147820115E-1,9.604660273E-1,1.077099964E-1,1.095032854E0
4.375327137E0,5.731130242E-1,1.056702971E0,2.233570069E-1,1.222688865E0
4.380338598E0,5.241850019E-1,9.854869843E-1,2.231020033E-1,1.138300934E0
4.385350299E0,4.683859944E-1,8.456990123E-1,2.669489980E-1,1.002922742E0
4.390361916E0,4.216949940E-1,7.156149745E-1,3.574909866E-1,9.042849469E-1
4.395373391E0,3.886350095E-1,5.618000031E-1,4.771839976E-1,8.332832542E-1
4.400385081E0,3.807260096E-1,4.321509898E-1,5.647510290E-1,8.066290951E-1
4.405396773E0,3.720020056E-1,3.457559943E-1,6.097779870E-1,7.935753860E-1
4.410408406E0,3.392449915E-1,2.642199993E-1,5.809029937E-1,7.227362315E-1
4.415419867E0,2.505640090E-1,2.088959962E-1,4.964770079E-1,5.940616796E-1
4.420431543E0,1.748339981E-1,2.036830038E-1,3.954409957E-1,4.779406595E-1
4.425443160E0,1.044109985E-1,2.414699942E-1,3.483999968E-1,4.365684052E-1
4.430454622E0,6.438399851E-2,3.201270103E-1,4.334599972E-1,5.426915986E-1
4.435466222E0,7.271999959E-3,4.515039921E-1,4.967879951E-1,6.713471896E-1
4.440477914E0,-8.500900120E-2,6.280879974E-1,4.491510093E-1,7.768253935E-1
4.445489607E0,-2.210029960E-1,8.255000114E-1,2.452429980E-1,8.890650827E-1
4.450501070E0,-4.387750030E-1,1.058593988E0,-1.225979999E-1,1.152464752E0
4.455512684E0,-7.116129994E-1,1.320291042E0,-5.985289812E-1,1.614867932E0
4.460524137E0,-9.417179823E-1,1.589120030E0,-1.042103052E0,2.120875763E0
4.465535827E0,-1.131688952E0,1.886683941E0,-1.384767056E0,2.599591502E0
4.470547445E0,-1.257727027E0,2.205866098E0,-1.579396009E0,2.990353536E0
4.475558896E0,-1.298338056E0,2.508423090E0,-1.609655976E0,3.250978386E0
4.480570587E0,-1.296280026E0,2.775207996E0,-1.619238019E0,3.464686579E0
4.485582279E0,-1.332641006E0,2.951175928E0,-1.586583972E0,3.605914601E0
4.490593681E0,-1.412271023E0,3.033899069E0,-1.530437946E0,3.679849631E0
4.495605371E0,-1.461156011E0,3.044907093E0,-1.560616016E0,3.720478255E0
4.500616971E0,-1.345384955E0,3.000940084E0,-1.784695983E0,3.741769878E0
4.505628664E0,-1.302075028E0,2.811104059E0,-2.126422882E0,3.757576305E0
4.510640127E0,-1.331686020E0,2.523305893E0,-2.411377907E0,3.735666432E0
4.515651756E0,-1.305222988E0,2.247661114E0,-2.671050072E0,3.726941912E0
4.520663448E0,-1.210752010E0,2.008128881E0,-2.898449898E0,3.728205177E0
4.525675140E0,-1.136698961E0,1.780773044E0,-3.103035927E0,3.753940480E0
4.530686604E0,-1.070974946E0,1.493775010E0,-3.181612015E0,3.674371528E0
4.535698221E0,-1.132974982E0,1.077710986E0,-3.157849073E0,3.523791147E0
4.540709913E0,-1.238702059E0,5.603479743E-1,-2.981606007E0,3.276941718E0
4.545721382E0,-1.374616027E0,-6.463000085E-3,-2.719158888E0,3.046873159E0
4.550732995E0,-1.504032969E0,-5.627430081E-1,-2.391747952E0,2.880842434E0
4.555744688E0,-1.623646021E0,-1.125112057E0,-2.027535915E0,2.830725248E0
4.560756137E0,-1.795493007E0,-1.661448956E0,-1.684129000E0,2.969932366E0
4.565767751E0,-2.015049934E0,-2.142843962E0,-1.310454965E0,3.220170601E0
4.570779438E0,-2.224931002E0,-2.547806978E0,-9.156990051E-1,3.504303501E0
4.575790902E0,-2.281440020E0,-2.785444975E0,-4.732609987E-1,3.631480173E0
4.580802515E0,-2.299128056E0,-2.879739046E0,3.633299842E-2,3.685133224E0
4.585814207E0,-3.367472887E0,-3.000583887E0,5.269610286E-1,4.541042307E0
4.590825657E0,-3.291960955E0,-2.800921917E0,7.970569730E-1,4.395164426E0
4.595837347E0,-2.665168047E0,-2.311832905E0,1.298424959E0,3.759467977E0
4.600848955E0,-1.907142043E0,-1.712813973E0,1.428089023E0,2.934341619E0
4.605860416E0,-1.183801055E0,-1.135540962E0,1.428120017E0,2.174940229E0
4.610872125E0,-3.721219897E-1,-5.943409801E-1,1.317674041E0,1.492642239E0
4.615883743E0,1.495929956E-1,-2.093469948E-1,1.147693992E0,1.176182693E0
4.620895204E0,5.112860203E-1,4.257899895E-2,7.772110105E-1,9.312804736E-1
4.625906914E0,6.013150215E-1,1.662739962E-1,4.504219890E-1,7.694847400E-1
4.630918531E0,3.221220076E-1,1.619299948E-1,2.281499952E-1,4.266571590E-1
4.635929988E0,-7.480999827E-2,8.428400010E-2,-6.253299862E-2,1.288825218E-1
4.640941678E0,-3.102470040E-1,5.788899958E-2,-3.662819862E-1,4.834943983E-1
4.645953380E0,-3.195149899E-1,1.117660031E-1,-6.504489779E-1,7.332566680E-1
4.650964998E0,-4.107550085E-1,1.359689981E-1,-9.325739741E-1,1.028057130E0
4.655976449E0,-4.723879993E-1,1.475369930E-1,-1.183110952E0,1.282446534E0
4.660988063E0,-4.654749930E-1,1.085510030E-1,-1.377938032E0,1.458479863E0
4.665999755E0,-4.544419944E-1,2.649400011E-2,-1.514597058E0,1.581525753E0
4.671011213E0,-4.670229852E-1,-6.241299957E-2,-1.555729985E0,1.625515807E0
4.676022904E0,-4.164949954E-1,-1.124619991E-1,-1.523087978E0,1.583007509E0
4.681034596E0,-4.368570149E-1,-1.714449972E-1,-1.432865977E0,1.507760706E0
4.686046214E0,-4.678910077E-1,-2.655830085E-1,-1.261142015E0,1.371107404E0
4.691057675E0,-4.836579859E-1,-3.565460145E-1,-1.040637970E0,1.201656146E0
4.696069284E0,-4.474830031E-1,-4.370810091E-1,-7.542589903E-1,9.798915609E-1
4.701080977E0,-4.048849940E-1,-5.695289969E-1,-4.825069904E-1,8.491808598E-1
4.706092444E0,-3.675650060E-1,-7.013459802E-1,-2.340870053E-1,8.257039079E-1
4.711104058E0,-3.538309932E-1,-8.518310189E-1,-4.520700127E-2,9.235021004E-1
4.716115517E0,-3.537980020E-1,-9.804419875E-1,9.104800224E-2,1.046293102E0
4.721127208E0,-3.962230086E-1,-1.102213979E0,2.261890024E-1,1.192908124E0
4.726138825E0,-4.190370142E-1,-1.209676981E0,3.117460012E-1,1.317609952E0
4.731150515E0,-4.581170082E-1,-1.319596052E0,3.072179854E-1,1.430240478E0
4.736161979E0,-5.135639906E-1,-1.448711991E0,3.106490076E-1,1.568125381E0
4.741173669E0,-5.590900183E-1,-1.556339979E0,2.883610129E-1,1.678668476E0
4.746185301E0,-5.757060051E-1,-1.664011955E0,2.714569867E-1,1.781589764E0
4.751196991E0,-5.945649743E-1,-1.757364035E0,2.646580040E-1,1.874000992E0
4.756208454E0,-6.300709844E-1,-1.857933998E0,2.655729949E-1,1.979756854E0
4.761220068E0,-7.063239813E-1,-1.953753948E0,2.407000065E-1,2.091407313E0
4.766231760E0,-8.043000102E-1,-2.037632942E0,2.401089966E-1,2.203746547E0
4.771243224E0,-8.547109962E-1,-2.071278095E0,2.326339930E-1,2.252741088E0
4.776254837E0,-8.622069955E-1,-2.049901962E0,2.636210024E-1,2.239418449E0
4.781266542E0,-8.938019872E-1,-2.002207994E0,2.899909914E-1,2.211744474E0
4.786278006E0,-9.255089760E-1,-1.916234970E0,3.044539988E-1,2.149701273E0
4.791289629E0,-9.836559892E-1,-1.815904975E0,3.165780008E-1,2.089332815E0
4.796301322E0,-1.029919028E0,-1.670104027E0,2.831740081E-1,1.982465179E0
4.801312785E0,-1.133697987E0,-1.533856034E0,2.351689935E-1,1.921793411E0
4.806324471E0,-1.213829041E0,-1.402361989E0,2.465659976E-1,1.871041122E0
4.811336088E0,-1.236827970E0,-1.266057014E0,3.150359988E-1,1.797746220E0
4.816347550E0,-1.260108948E0,-1.139302969E0,4.454810023E-1,1.756228669E0
4.821359240E0,-1.257676005E0,-1.030447006E0,5.569279790E-1,1.718644449E0
4.826370857E0,-1.235244036E0,-9.140750170E-1,6.235600114E-1,1.658369094E0
4.831382548E0,-1.169999003E0,-8.284950256E-1,6.885820031E-1,1.590423481E0
4.836394011E0,-1.123340011E0,-7.833610177E-1,7.217720151E-1,1.548063986E0
4.841405701E0,-1.064406037E0,-7.500619888E-1,7.194409966E-1,1.487665469E0
4.846417319E0,-1.021381974E0,-7.357890010E-1,7.222059965E-1,1.451271199E0
4.851428780E0,-9.797880054E-1,-7.573260069E-1,7.064219713E-1,1.425678511E0
4.856440476E0,-9.095379710E-1,-7.597370148E-1,6.727629900E-1,1.362743444E0
4.861452093E0,-8.299229741E-1,-7.909269929E-1,6.309729815E-1,1.308611690E0
4.866463555E0,-7.805870175E-1,-8.340389729E-1,6.181510091E-1,1.298864031E0
4.871475245E0,-7.557370067E-1,-9.032790065E-1,6.495710015E-1,1.344988429E0
4.876486891E0,-7.407000065E-1,-9.722409844E-1,6.981949806E-1,1.407609769E0
4.881498582E0,-7.327950001E-1,-1.031386018E0,7.358289957E-1,1.463622199E0
4.886510045E0,-7.502160072E-1,-1.078277946E0,7.744749784E-1,1.524899629E0
4.891521659E0,-7.225570083E-1,-1.120180011E0,8.002600074E-1,1.554769425E0
4.896533122E0,-6.442660093E-1,-1.138090014E0,8.115509748E-1,1.539136952E0
4.901544798E0,-6.125699878E-1,-1.179363012E0,8.428220153E-1,1.573686136E0
4.906556415E0,-6.039540172E-1,-1.213497043E0,8.651949763E-1,1.608072721E0
4.911568105E0,-5.753549933E-1,-1.269204021E0,8.930749893E-1,1.655142033E0
4.916579564E0,-5.482400060E-1,-1.353674054E0,9.385570288E-1,1.736055830E0
4.921591177E0,-4.914340079E-1,-1.471699953E0,9.801719785E-1,1.835250730E0
4.926602855E0,-4.508750141E-1,-1.589797020E0,9.557780027E-1,1.908993042E0
4.931614548E0,-4.312070012E-1,-1.679247975E0,9.108560085E-1,1.958436088E0
4.936625992E0,-4.662480056E-1,-1.754421949E0,8.717610240E-1,2.013790173E0
4.941637606E0,-5.442979932E-1,-1.808143020E0,8.049569726E-1,2.052704853E0
4.946649069E0,-6.609449983E-1,-1.797335029E0,6.648300290E-1,2.027131092E0
4.951660755E0,-7.948960066E-1,-1.733947039E0,4.894579947E-1,1.969264107E0
4.956672372E0,-8.937960267E-1,-1.620347977E0,3.047800064E-1,1.875443882E0
4.961684062E0,-9.410259724E-1,-1.456526995E0,1.560750008E-1,1.741080174E0
4.966695545E0,-9.484189749E-1,-1.252014041E0,5.494600162E-2,1.571641427E0
4.971707158E0,-8.564220071E-1,-1.022057056E0,-1.753799990E-2,1.333554222E0
4.976718846E0,-7.318019867E-1,-7.994440198E-1,-1.341400016E-2,1.083893364E0
4.981730309E0,-6.770790219E-1,-6.151559949E-1,-7.195000071E-3,9.148249385E-1
4.986741994E0,-6.320030093E-1,-4.379979968E-1,3.354400024E-2,7.696721698E-1
4.991753612E0,-5.615159869E-1,-2.320670038E-1,9.850600362E-2,6.155150125E-1
4.996765073E0,-5.614640117E-1,-2.122000046E-2,1.664039940E-1,5.859884078E-1
5.001776769E0,-5.834100246E-1,2.567670047E-1,2.374749929E-1,6.802138809E-1
5.006788386E0,-5.756829977E-1,5.682929754E-1,2.978290021E-1,8.620150430E-1
5.011799848E0,-5.806139708E-1,8.965049982E-1,2.988420129E-1,1.109116921E0
5.016811523E0,-6.501359940E-1,1.213889003E0,2.858969867E-1,1.406392694E0
5.021823140E0,-7.742450237E-1,1.442880988E0,3.003900051E-1,1.664810817E0
5.026834607E0,-8.738679886E-1,1.597869039E0,3.323090076E-1,1.851286040E0
5.031846297E0,-9.513049722E-1,1.678900957E0,4.242079854E-1,1.975763647E0
5.036857910E0,-1.011167049E0,1.709936023E0,5.423259735E-1,2.059237108E0
5.041869600E0,-1.019778967E0,1.679041982E0,7.126669884E-1,2.089742892E0
5.046881074E0,-9.985730052E-1,1.555134058E0,8.704720140E-1,2.042868452E0
5.051892764E0,-1.016931057E0,1.381296992E0,1.094652057E0,2.034795636E0
5.056904150E0,-1.027326941E0,1.226899028E0,1.330258965E0,2.080930269E0
5.061915841E0,-1.006031036E0,1.113453031E0,1.563305020E0,2.166979161E0
5.066927451E0,-9.004489779E-1,1.062453032E0,1.772744060E0,2.254381580E0
5.071939144E0,-7.633230090E-1,1.102570057E0,1.928074002E0,2.348572355E0
5.076950607E0,-6.641089916E-1,1.176293969E0,1.996685982E0,2.410697651E0
5.081962287E0,-5.480419993E-1,1.309834957E0,1.955757022E0,2.416816745E0
5.086973980E0,-3.961859941E-1,1.471953988E0,1.777770042E0,2.341810882E0
5.091985612E0,-2.637960017E-1,1.662549973E0,1.480309010E0,2.241645714E0
5.096997074E0,-9.831699729E-2,1.888730049E0,1.090234995E0,2.183020791E0
5.102008682E0,1.145569980E-1,2.150456905E0,5.934569836E-1,2.233781413E0
5.107020374E0,2.434909940E-1,2.356810093E0,-4.829800129E-2,2.369846910E0
5.112032067E0,3.148069978E-1,2.560465097E0,-7.420819998E-1,2.684356656E0
5.117043544E0,4.052760005E-1,2.775836945E0,-1.514641047E0,3.188049071E0
5.122055158E0,4.841980040E-1,2.962379932E0,-2.295306921E0,3.778700363E0
5.127066641E0,5.231450200E-1,3.089191914E0,-2.987888098E0,4.329464479E0
5.132078255E0,5.317950249E-1,3.115787029E0,-3.421987057E0,4.658425719E0
5.137089932E0,6.034330130E-1,3.106940985E0,-3.491655111E0,4.712628683E0
5.142101395E0,6.948220134E-1,3.069895029E0,-3.192838907E0,4.483442138E0
5.147113009E0,7.817289829E-1,2.942409992E0,-2.654592991E0,4.039274776E0
5.152124696E0,8.662250042E-1,2.733967066E0,-2.038772106E0,3.518737469E0
5.157136160E0,9.552860260E-1,2.485143900E0,-1.413733006E0,3.014490439E0
5.162147773E0,9.746350050E-1,2.236496925E0,-8.500080109E-1,2.583475471E0
5.167159470E0,8.716689944E-1,2.038149118E0,-4.084990025E-1,2.254047493E0
5.172170934E0,6.823289990E-1,1.892375946E0,-2.829200029E-2,2.011830018E0
5.177182614E0,5.000230074E-1,1.775128007E0,2.103500068E-1,1.856165287E0
5.182194232E0,3.537099957E-1,1.648038983E0,3.273659945E-1,1.717064864E0
5.187205922E0,2.819209993E-1,1.508641958E0,3.234309852E-1,1.568466643E0
5.192217382E0,2.609730065E-1,1.356906056E0,2.012799978E-1,1.396357617E0
5.197229072E0,2.862119973E-1,1.209535956E0,-2.765000099E-3,1.242940941E0
5.202240698E0,3.743909895E-1,1.071303964E0,-3.149240017E-1,1.177725742E0
5.207252160E0,4.815419912E-1,9.457439780E-1,-6.654430032E-1,1.252648694E0
5.212263865E0,6.538720131E-1,8.662459850E-1,-1.030210972E0,1.496417509E0
5.217275483E0,8.218870163E-1,7.636579871E-1,-1.388152957E0,1.784836245E0
5.222287173E0,9.294999838E-1,6.190909743E-1,-1.797968984E0,2.116586006E0
5.227298631E0,1.049978018E0,4.759309888E-1,-2.219281912E0,2.500835130E0
5.232310245E0,1.180305958E0,3.370769918E-1,-2.615613937E0,2.889321602E0
5.237321713E0,1.273282051E0,2.151679993E-1,-2.939783096E0,3.210898488E0
5.242333404E0,1.389812946E0,8.440099657E-2,-3.136492968E0,3.431660194E0
5.247345096E0,1.521725059E0,-4.284799844E-2,-3.151588917E0,3.499999401E0
5.252356473E0,1.638053060E0,-1.663929969E-1,-3.041760921E0,3.458787932E0
5.257368163E0,1.676080942E0,-2.789559960E-1,-2.803721905E0,3.278402094E0
5.262379768E0,1.768473029E0,-2.587180138E-1,-2.486448050E0,3.062165209E0
5.267391461E0,1.748203993E0,-4.001339972E-1,-2.174554110E0,2.818689410E0
5.272402924E0,1.811738014E0,-4.546180069E-1,-1.831524968E0,2.616019089E0
5.277414615E0,1.743659019E0,-5.274940133E-1,-1.525459051E0,2.376051773E0
5.282426218E0,1.641044974E0,-6.643530130E-1,-1.301457047E0,2.197312900E0
5.287437680E0,1.554306030E0,-7.863870263E-1,-1.057446003E0,2.037759515E0
5.292449370E0,1.370221019E0,-8.937240243E-1,-8.081480265E-1,1.824651064E0
5.297461007E0,1.131878972E0,-1.046370029E0,-5.630530119E-1,1.641057263E0
5.302472698E0,9.506360292E-1,-1.216223955E0,-3.273540139E-1,1.577995634E0
5.307484161E0,8.546640277E-1,-1.369356036E0,-1.165250018E-1,1.618383338E0
5.312495856E0,7.628059983E-1,-1.524899960E0,1.390590072E-1,1.710710462E0
5.317507474E0,7.371029854E-1,-1.591917992E0,4.398280084E-1,1.808582976E0
5.322518920E0,7.153170109E-1,-1.615861058E0,6.929280162E-1,1.898113437E0
5.327530534E0,6.759539843E-1,-1.606292009E0,8.819029927E-1,1.953161718E0
5.332542226E0,5.829849839E-1,-1.570384979E0,1.002323985E0,1.952084487E0
5.337553714E0,4.745540023E-1,-1.524876952E0,1.025704980E0,1.898031066E0
5.342565327E0,3.383859992E-1,-1.448238015E0,9.950600266E-1,1.789425296E0
5.347577024E0,1.932419986E-1,-1.357203007E0,9.249129891E-1,1.653725040E0
5.352588488E0,7.709600031E-2,-1.237418056E0,8.368059993E-1,1.495791268E0
5.357600101E0,-7.999999798E-4,-1.110412002E0,7.259510159E-1,1.326657579E0
5.362611794E0,-9.568399936E-2,-9.953340292E-1,5.682430267E-1,1.150106688E0
5.367623472E0,-1.082680002E-1,-8.733689785E-1,3.643159866E-1,9.524817429E-1
5.372634935E0,-4.241500050E-2,-7.703719735E-1,2.093780041E-1,7.994442810E-1
5.377646626E0,6.696300209E-2,-6.719909906E-1,4.125599936E-2,6.765781497E-1
5.382658238E0,1.930350065E-1,-6.189489961E-1,-8.430899680E-2,6.538106610E-1
5.387669700E0,3.003750145E-1,-6.327970028E-1,-1.781779975E-1,7.227756186E-1
5.392681390E0,4.057489932E-1,-6.704739928E-1,-2.508679926E-1,8.228623033E-1
5.397693007E0,5.230029821E-1,-7.248179913E-1,-2.916750014E-1,9.401954830E-1
5.402704464E0,5.959740281E-1,-7.982770205E-1,-2.786549926E-1,1.034446639E0
5.407716077E0,6.490960121E-1,-8.909190297E-1,-2.042749971E-1,1.121066735E0
5.412727541E0,6.643919945E-1,-9.883919954E-1,-1.308880001E-1,1.198109814E0
5.417739241E0,7.161999941E-1,-1.071946979E0,-4.064299911E-2,1.289831233E0
5.422750934E0,7.456060052E-1,-1.196210027E0,4.384899884E-2,1.410237383E0
5.427762551E0,7.550169826E-1,-1.325281978E0,1.490900069E-1,1.532530846E0
5.432774241E0,7.564150095E-1,-1.451969028E0,2.633599937E-1,1.658232858E0
5.437785704E0,7.570480108E-1,-1.581056952E0,3.940249979E-1,1.796696546E0
5.442797317E0,7.737910151E-1,-1.695773959E0,4.936420023E-1,1.928233462E0
5.447809010E0,7.900270224E-1,-1.784139991E0,5.887140036E-1,2.038107549E0
5.452820473E0,7.963669896E-1,-1.843768954E0,6.722549796E-1,2.117926131E0
5.457832087E0,8.598780036E-1,-1.862678051E0,7.467679977E-1,2.183259523E0
5.462843779E0,8.946629763E-1,-1.843269944E0,7.955780029E-1,2.197955934E0
5.467855242E0,8.816999793E-1,-1.792724967E0,8.089889884E-1,2.155393431E0
5.472866856E0,8.401929736E-1,-1.730195999E0,8.059660196E-1,2.085445673E0
5.477878534E0,7.988680005E-1,-1.648514032E0,7.910630107E-1,1.995387001E0
5.482890226E0,7.722669840E-1,-1.547685981E0,7.689440250E-1,1.892882221E0
5.487901690E0,7.389230132E-1,-1.434911013E0,7.513480186E-1,1.780309153E0
5.492913288E0,7.013459802E-1,-1.293439031E0,7.142819762E-1,1.635563955E0
5.497924981E0,6.572610140E-1,-1.163967013E0,6.598349810E-1,1.490702335E0
5.502936367E0,5.709440112E-1,-1.027364016E0,6.453830004E-1,1.340885193E0
5.507948043E0,4.522410035E-1,-9.272530079E-1,6.223620176E-1,1.204846275E0
5.512959735E0,3.776499927E-1,-8.416090012E-1,6.688380241E-1,1.139416311E0
5.517971199E0,3.434129953E-1,-7.919319868E-1,7.225750089E-1,1.125701293E0
5.522982903E0,2.995690107E-1,-7.781999707E-1,7.602679729E-1,1.128425530E0
5.527994520E0,2.416930050E-1,-7.836499810E-1,7.873290181E-1,1.136842023E0
5.533005982E0,2.094649971E-1,-7.986630201E-1,7.994359732E-1,1.149276329E0
5.538017591E0,1.880919933E-1,-8.208079934E-1,7.902939916E-1,1.154845857E0
5.543029283E0,1.237900034E-1,-8.573049903E-1,7.719479799E-1,1.160258374E0
5.548040732E0,9.663400054E-2,-8.866090178E-1,7.888100147E-1,1.190644750E0
5.553052422E0,1.053230017E-1,-8.942930102E-1,7.702109814E-1,1.184937922E0
5.558064040E0,1.024269983E-1,-8.875499964E-1,7.404369712E-1,1.160380625E0
5.563075511E0,1.022389978E-1,-8.711889982E-1,7.530590296E-1,1.156080008E0
5.568087202E0,8.847799897E-2,-8.524159789E-1,7.881320119E-1,1.164299543E0
5.573098819E0,9.633799642E-2,-8.192369938E-1,8.543639779E-1,1.187589183E0
5.578110533E0,1.042589992E-1,-8.003500104E-1,9.113720059E-1,1.217386139E0
5.583121997E0,1.123519987E-1,-7.861539721E-1,9.387350082E-1,1.229587108E0
5.588133600E0,1.229050010E-1,-7.455340028E-1,9.582930207E-1,1.220349172E0
5.593145064E0,1.358720064E-1,-7.191560268E-1,9.469779730E-1,1.196834940E0
5.598156754E0,1.257030070E-1,-6.831319928E-1,9.011229873E-1,1.137757972E0
5.603168372E0,8.838400245E-2,-6.829580069E-1,8.539630175E-1,1.097039747E0
5.608180048E0,5.488299951E-2,-6.875259876E-1,8.238289952E-1,1.074429309E0
5.613191740E0,2.507299930E-2,-6.896520257E-1,8.008670211E-1,1.057183313E0
5.618203189E0,-1.262999978E-2,-6.917189956E-1,8.058500290E-1,1.062087075E0
5.623214802E0,-8.122400194E-2,-7.176799774E-1,7.909539938E-1,1.071106955E0
5.628226266E0,-1.612980068E-1,-7.412040234E-1,7.752199769E-1,1.084604289E0
5.633237942E0,-1.645289958E-1,-7.262629867E-1,8.096429706E-1,1.100022480E0
5.638249559E0,-1.466169953E-1,-7.230510116E-1,8.557519913E-1,1.129872019E0
5.643261250E0,-2.356240004E-1,-7.149419785E-1,8.576959968E-1,1.141184965E0
5.648272727E0,-2.614730000E-1,-6.995339990E-1,8.101230264E-1,1.101823608E0
5.653284341E0,-1.031740010E-1,-6.120139956E-1,8.357729912E-1,1.041019932E0
5.658295814E0,-1.023489982E-1,-6.081410050E-1,8.074439764E-1,1.016010125E0
5.663307505E0,-8.492100239E-2,-6.137359738E-1,7.826480269E-1,9.982090744E-1
5.668319121E0,-6.316799670E-2,-6.407880187E-1,7.616530061E-1,9.973538902E-1
5.673330811E0,-3.944399953E-2,-6.583099961E-1,6.961150169E-1,9.589077103E-1
5.678342529E0,-6.872999948E-3,-6.807969809E-1,5.948600173E-1,9.040963485E-1
5.683353992E0,5.060299858E-2,-6.892120242E-1,4.639720023E-1,8.323724507E-1
5.688365606E0,9.748999774E-2,-7.052569985E-1,2.908029854E-1,7.690631378E-1
5.693377064E0,1.573929936E-1,-7.123270035E-1,6.532999873E-2,7.324276913E-1
5.698388754E0,1.928050071E-1,-7.009810209E-1,-2.060769945E-1,7.556559337E-1
5.703400357E0,2.160400003E-1,-6.783810258E-1,-4.944779873E-1,8.668232679E-1
5.708411818E0,1.927859932E-1,-6.108859777E-1,-7.489529848E-1,9.855347231E-1
5.713423509E0,1.821479946E-1,-4.958069921E-1,-9.321600199E-1,1.071412511E0
5.718435121E0,1.927790046E-1,-3.184730113E-1,-1.007995963E0,1.074543934E0
5.723446583E0,2.100200057E-1,-8.334600180E-2,-9.109539986E-1,9.385585471E-1
5.728458278E0,2.102089971E-1,1.712960005E-1,-7.882980108E-1,8.336329505E-1
5.733469895E0,1.983049959E-1,4.526689947E-1,-6.134610176E-1,7.877617091E-1
5.738481586E0,1.720460057E-1,7.440410256E-1,-3.834150136E-1,8.545197181E-1
5.743493049E0,1.465860009E-1,9.857329726E-1,-1.250900030E-1,1.004392582E0
5.748504740E0,1.771360040E-1,1.182101965E0,1.854429990E-1,1.209599655E0
5.753516357E0,2.492260039E-1,1.311601043E0,4.885460138E-1,1.421649782E0
5.758527818E0,3.079290092E-1,1.362264037E0,7.077680230E-1,1.565732786E0
5.763539509E0,3.842259943E-1,1.341269970E0,8.959919810E-1,1.658142448E0
5.768551126E0,4.854629934E-1,1.313227057E0,1.005429983E0,1.723696340E0
5.773562588E0,5.902990103E-1,1.273368955E0,1.114874959E0,1.792447375E0
5.778574268E0,6.939650178E-1,1.291093946E0,1.320116997E0,1.972617527E0
5.783585885E0,8.134700060E-1,1.378366947E0,1.681283951E0,2.321280813E0
5.788597338E0,8.365110159E-1,1.592574954E0,2.175529003E0,2.822936788E0
5.793609028E0,7.799689770E-1,1.919247031E0,2.589415073E0,3.316162118E0
5.798620646E0,6.104959846E-1,2.284082890E0,2.824528933E0,3.683436396E0
5.803632345E0,3.543410003E-1,2.624732971E0,2.767868996E0,3.830911052E0
5.808643809E0,2.820700034E-2,2.886060953E0,2.401658058E0,3.754744317E0
5.813655422E0,-3.394150138E-1,3.080004930E0,1.805096030E0,3.586084857E0
5.818667114E0,-5.498679876E-1,3.244904995E0,9.869539738E-1,3.435962947E0
5.823678578E0,-6.122609973E-1,3.400007010E0,6.506700069E-2,3.455306775E0
5.828690191E0,-5.497639775E-1,3.497600079E0,-8.098379970E-1,3.631980771E0
5.833701880E0,-3.495559990E-1,3.494723082E0,-1.391065955E0,3.777610793E0
5.838713572E0,-8.523400128E-2,3.393842936E0,-1.756698012E0,3.822489060E0
5.843725035E0,1.718430072E-1,3.159104109E0,-2.003405094E0,3.744743083E0
5.848736649E0,3.334600031E-1,2.862309933E0,-2.215454102E0,3.634865967E0
5.853748116E0,3.730019927E-1,2.553747892E0,-2.393306017E0,3.519754604E0
5.858759730E0,2.565740049E-1,2.266952038E0,-2.537410021E0,3.412235539E0
5.863771422E0,-2.395000076E-3,2.009121895E0,-2.590260029E0,3.278112802E0
5.868782886E0,-2.445629984E-1,1.799425960E0,-2.518107891E0,3.104611440E0
5.873794581E0,-4.036419988E-1,1.561262965E0,-2.358450890E0,2.857054341E0
5.878806198E0,-5.088099837E-1,1.277850986E0,-2.170155048E0,2.569311907E0
5.883817889E0,-6.417030096E-1,9.395740032E-1,-1.945080996E0,2.253424536E0
5.888829357E0,-7.818650007E-1,5.740169883E-1,-1.650635004E0,1.914524562E0
5.893840971E0,-9.002310038E-1,2.471780032E-1,-1.411697984E0,1.692455028E0
5.898852434E0,-1.027274966E0,-5.802600086E-2,-1.330567956E0,1.681984530E0
5.903864125E0,-1.141690969E0,-2.986629903E-1,-1.313457012E0,1.765737006E0
5.908875747E0,-1.269265056E0,-4.509370029E-1,-1.392838955E0,1.937621820E0
5.913887437E0,-1.381291032E0,-6.009950042E-1,-1.523766994E0,2.142667908E0
5.918898901E0,-1.500764012E0,-7.630670071E-1,-1.674458027E0,2.374525966E0
5.923910581E0,-1.578299046E0,-8.770599961E-1,-1.763808012E0,2.524139619E0
5.928922198E0,-1.704455972E0,-1.050323963E0,-1.782775998E0,2.680791086E0
5.933933899E0,-1.728647947E0,-1.222795963E0,-1.664610028E0,2.693395671E0
5.938945285E0,-1.837579012E0,-1.351953030E0,-1.493144989E0,2.726528118E0
5.943956976E0,-1.923277020E0,-1.421259999E0,-1.289844036E0,2.717107307E0
5.948968424E0,-1.966626048E0,-1.452239990E0,-1.079033971E0,2.672252479E0
5.953980115E0,-1.936678052E0,-1.380277991E0,-7.722839713E-1,2.500462306E0
5.958991732E0,-1.848021030E0,-1.289132953E0,-4.654720128E-1,2.300806314E0
5.964003194E0,-1.629179001E0,-1.169628024E0,-8.278500289E-2,2.007263632E0
5.969014884E0,-1.385504961E0,-1.035354972E0,2.785890102E-1,1.751912027E0
5.974026501E0,-1.127802968E0,-8.602769971E-1,5.620470047E-1,1.525749941E0
5.979038207E0,-9.240080118E-1,-6.731899977E-1,8.077160120E-1,1.399778816E0
5.984049670E0,-7.565230131E-1,-4.790410101E-1,9.334980249E-1,1.293532343E0
5.989061284E0,-6.106219888E-1,-2.875440121E-1,9.780489802E-1,1.188326798E0
5.994072985E0,-5.347160101E-1,-7.960200310E-2,9.390730262E-1,1.083566260E0
5.999084448E0,-4.663000107E-1,4.414900020E-2,8.281859756E-1,9.514603745E-1
6.004096139E0,-3.726670146E-1,9.551600367E-2,6.682819724E-1,7.711062218E-1
6.009107747E0,-2.637220025E-1,7.440699637E-2,4.766980112E-1,5.498424225E-1
6.014119209E0,-7.243499905E-2,3.320800141E-2,2.171120048E-1,2.312730487E-1
6.019130822E0,1.619080007E-1,-1.838000026E-3,-7.844600081E-2,1.799204101E-1
6.024142581E0,3.666560054E-1,-4.013200104E-2,-3.789719939E-1,5.288354905E-1
6.029154199E0,4.852479994E-1,-9.088599682E-2,-6.451370120E-1,8.123593107E-1
6.034165597E0,4.859699905E-1,-1.298100054E-1,-8.874220252E-1,1.020066331E0
6.039177288E0,5.653420091E-1,-1.783230007E-1,-1.014075994E0,1.174632199E0
6.044188980E0,6.520159841E-1,-2.841230035E-1,-1.054021001E0,1.271538829E0
6.049200439E0,5.747630000E-1,-4.565069973E-1,-1.095644951E0,1.318783152E0
6.054212052E0,4.387359917E-1,-6.451569796E-1,-1.115586996E0,1.361341671E0
6.059223744E0,3.802799881E-1,-7.807940245E-1,-1.114774942E0,1.413143783E0
6.064235208E0,4.017130136E-1,-8.898640275E-1,-1.135836959E0,1.497784006E0
6.069246908E0,3.895530105E-1,-1.010627031E0,-1.177961946E0,1.600222762E0
6.074258526E0,3.150739968E-1,-1.159124970E0,-1.144490957E0,1.659126840E0
6.079270216E0,2.828849852E-1,-1.302770972E0,-1.057464957E0,1.701607551E0
6.084281674E0,2.522459924E-1,-1.460706949E0,-9.213709831E-1,1.745341606E0
6.089293288E0,1.678179950E-1,-1.628165960E0,-7.382400036E-1,1.795573885E0
6.094304757E0,1.035410017E-1,-1.793187022E0,-5.651479959E-1,1.882985049E0
6.099316448E0,-1.978800073E-2,-1.950999975E0,-3.468579948E-1,1.981691938E0
6.104328065E0,-2.360849977E-1,-2.089658022E0,-1.139860004E-1,2.106038837E0
6.109339536E0,-3.734799922E-1,-2.158926964E0,1.289869994E-1,2.194787139E0
6.114351226E0,-4.800660014E-1,-2.170784950E0,3.418709934E-1,2.249365787E0
6.119362829E0,-5.655379891E-1,-2.151567936E0,5.010920167E-1,2.280388346E0
6.124374291E0,-6.298949718E-1,-2.108457088E0,6.283100247E-1,2.288478197E0
6.129385981E0,-6.803730130E-1,-2.041455030E0,7.259240150E-1,2.270993561E0
6.134397613E0,-7.097259760E-1,-1.950559974E0,7.891010046E-1,2.220602524E0
6.139409074E0,-7.417610288E-1,-1.850119948E0,8.033099771E-1,2.149060298E0
6.144420750E0,-8.123090267E-1,-1.740131021E0,7.897970080E-1,2.076458822E0
6.149432368E0,-8.567000031E-1,-1.639726043E0,7.314509749E-1,1.989386066E0
6.154444048E0,-8.606989980E-1,-1.503442049E0,6.638690233E-1,1.855225819E0
6.159455512E0,-8.624119759E-1,-1.338443041E0,6.250360012E-1,1.710512845E0
6.164467125E0,-8.449689746E-1,-1.166260958E0,5.669739842E-1,1.547771523E0
6.169478808E0,-8.360000253E-1,-1.009613037E0,5.168759823E-1,1.409033466E0
6.174490272E0,-8.461980224E-1,-8.863819838E-1,4.846329987E-1,1.317798641E0
6.179501966E0,-8.562059999E-1,-8.013600111E-1,4.325119853E-1,1.249933278E0
6.184513584E0,-8.797770143E-1,-7.401880026E-1,3.470770121E-1,1.200978071E0
6.189525045E0,-8.679959774E-1,-6.861429811E-1,3.011429906E-1,1.146689281E0
6.194536722E0,-8.311409950E-1,-6.440430284E-1,2.889080048E-1,1.090437807E0
6.199548339E0,-7.977619767E-1,-5.875520110E-1,2.931630015E-1,1.033240573E0
6.204559801E0,-7.469549775E-1,-5.406259894E-1,3.132599890E-1,9.738326446E-1
6.209571505E0,-6.908320189E-1,-4.937469959E-1,2.907229960E-1,8.975270663E-1
6.214583122E0,-5.738260150E-1,-4.661419988E-1,3.078550100E-1,8.008366661E-1
6.219594584E0,-4.906800091E-1,-4.242689908E-1,3.402810097E-1,7.325040706E-1
6.224606274E0,-4.128200114E-1,-3.800939918E-1,3.758949935E-1,6.754175379E-1
6.229617878E0,-3.399870098E-1,-3.431549966E-1,4.540039897E-1,6.629224247E-1
6.234629339E0,-2.607710063E-1,-2.632310092E-1,5.247160196E-1,6.423542506E-1
6.239641029E0,-1.823070049E-1,-1.738300025E-1,5.885480046E-1,6.401886188E-1
6.244652637E0,-1.648110002E-1,-1.370359957E-1,6.598169804E-1,6.937578666E-1
6.249664098E0,-1.506890059E-1,-1.480520070E-1,7.079129815E-1,7.387606938E-1
6.254675784E0,-1.608549953E-1,-1.565909982E-1,7.523360252E-1,7.851143643E-1
6.259687476E0,-2.060959935E-1,-1.769240052E-1,8.025609851E-1,8.472790549E-1
6.264698863E0,-2.621220052E-1,-2.257899940E-1,8.328869939E-1,9.018812625E-1
6.269710544E0,-2.846919894E-1,-2.554279864E-1,8.557959795E-1,9.373791888E-1
6.274722236E0,-2.721880078E-1,-3.281539977E-1,8.364419937E-1,9.388325552E-1
6.279733854E0,-2.396029979E-1,-4.033519924E-1,8.086820245E-1,9.349165968E-1
6.284745320E0,-1.641609967E-1,-4.716410041E-1,7.192739844E-1,8.756421268E-1
6.289756934E0,-8.679600060E-2,-5.331370234E-1,5.841599703E-1,7.956201998E-1
6.294768620E0,1.104400028E-2,-5.783470273E-1,4.347139895E-1,7.235907038E-1
6.299780083E0,9.393200278E-2,-6.454589963E-1,3.174310029E-1,7.253984964E-1
6.304791702E0,1.484899968E-1,-7.032619715E-1,2.219820023E-1,7.522650391E-1
6.309803394E0,2.148510069E-1,-7.684000134E-1,1.843779981E-1,8.188985175E-1
6.314814867E0,2.880530059E-1,-8.240349889E-1,1.911319941E-1,8.936104500E-1
6.319826557E0,3.191680014E-1,-8.700389862E-1,2.129810005E-1,9.508927159E-1
6.324838174E0,3.281159997E-1,-8.872219920E-1,2.333679944E-1,9.743118562E-1
6.329849631E0,3.179360032E-1,-9.115269780E-1,2.105949968E-1,9.880865278E-1
6.334861244E0,2.730920017E-1,-8.926140070E-1,2.016460001E-1,9.549869718E-1
6.339872937E0,1.947890073E-1,-8.735269904E-1,1.734959930E-1,9.116430332E-1
6.344884405E0,1.142529994E-1,-8.374879956E-1,1.590549946E-1,8.600804509E-1
6.349896096E0,3.862800077E-2,-8.013200164E-1,1.162159964E-1,8.106244808E-1
6.354907713E0,-2.045300044E-2,-7.218700051E-1,1.224260032E-1,7.324634843E-1
6.359919194E0,-1.073630005E-1,-6.492159963E-1,1.831240058E-1,6.830392560E-1
6.364930884E0,-1.609230042E-1,-5.569519997E-1,3.085319996E-1,6.567219640E-1
6.369942576E0,-1.727820039E-1,-4.666459858E-1,4.509069920E-1,6.715126301E-1
6.374954194E0,-1.857499927E-1,-3.447560072E-1,6.127470136E-1,7.271991934E-1
6.379965655E0,-2.251919955E-1,-2.294829935E-1,7.963309884E-1,8.587880543E-1
6.384977274E0,-2.903360128E-1,-1.280599982E-1,9.458820224E-1,9.976909159E-1
6.389988966E0,-3.133389950E-1,2.387800068E-2,1.039813995E0,1.086261768E0
6.395000429E0,-3.418239951E-1,1.590529978E-1,1.033414960E0,1.100039990E0
6.400012043E0,-3.550240099E-1,2.914110124E-1,9.015769958E-1,1.011831757E0
6.405023735E0,-3.911289871E-1,4.445720017E-1,6.589739919E-1,8.859305115E-1
6.410035199E0,-3.986479938E-1,6.040560007E-1,3.918060064E-1,8.229919937E-1
6.415046875E0,-3.229030073E-1,7.552930117E-1,7.900600135E-2,8.252125992E-1
6.420058492E0,-2.499230057E-1,8.816549778E-1,-2.256190032E-1,9.437589434E-1
6.425069954E0,-1.934449971E-1,9.641709924E-1,-5.115150213E-1,1.108464833E0
6.430081653E0,-1.759700030E-1,9.577159882E-1,-7.380329967E-1,1.221833892E0
6.435093271E0,-2.425370067E-1,8.678770065E-1,-1.675966978E0,1.902866262E0
6.440104751E0,-6.026790142E-1,7.316830158E-1,-1.550937057E0,1.817687482E0
6.445116441E0,-5.282400176E-2,7.648820281E-1,-6.183940172E-1,9.850106865E-1
6.450128059E0,-1.149249971E-1,5.647320151E-1,-2.976939976E-1,6.486537752E-1
6.455139535E0,-3.415659964E-1,3.557760119E-1,-2.297530025E-1,5.440867052E-1
6.460151149E0,-2.892329991E-1,2.359589934E-1,-6.333900243E-2,3.786082455E-1
6.465162826E0,-1.471980065E-1,1.815509945E-1,2.152310014E-1,3.177300752E-1
6.470174290E0,-1.130469963E-1,1.543290019E-1,4.501070082E-1,4.890740057E-1
6.475185976E0,-6.538199633E-2,1.852940023E-1,6.667280197E-1,6.950790782E-1
6.480197593E0,6.986000109E-3,2.263340056E-1,8.223950267E-1,8.530002733E-1
6.485209284E0,4.278099909E-2,2.627040148E-1,8.615390062E-1,9.017167363E-1
6.490220732E0,7.071200013E-2,3.129000068E-1,7.464399934E-1,8.124526232E-1
6.495232346E0,1.606460065E-1,3.809939921E-1,4.934419990E-1,6.437767996E-1
6.500243809E0,2.178270072E-1,4.737420082E-1,1.414519995E-1,5.402673075E-1
6.505255500E0,2.595039904E-1,5.743839741E-1,-2.116740048E-1,6.648798049E-1
6.510267117E0,2.954539955E-1,7.237049937E-1,-5.500779748E-1,9.558387729E-1
6.515278817E0,3.702020049E-1,8.909620047E-1,-8.050709963E-1,1.256583514E0
6.520290281E0,4.176990092E-1,1.055377007E0,-8.936340213E-1,1.444601970E0
6.525301870E0,3.780660033E-1,1.185423017E0,-9.086859822E-1,1.540737436E0
6.530313563E0,3.628070056E-1,1.289078951E0,-9.086260200E-1,1.618318482E0
6.535325021E0,4.102399945E-1,1.380746961E0,-9.153059721E-1,1.706617721E0
6.540336634E0,5.421130061E-1,1.541811943E0,-9.599649906E-1,1.895416409E0
6.545348327E0,5.581730008E-1,1.623991013E0,-1.040498018E0,2.007869526E0
6.550359790E0,1.544049978E-1,1.265988946E0,-1.276906013E0,1.804732080E0
6.555371404E0,2.479999966E-4,1.233623028E0,-1.473871946E0,1.922010497E0
6.560383096E0,-2.604099922E-2,1.342738986E0,-1.426277995E0,1.959054629E0
6.565394560E0,-1.779530048E-1,1.342092991E0,-1.169926047E0,1.789303726E0
6.570406173E0,-3.121609986E-1,1.269906044E0,-8.096429706E-1,1.538059683E0
6.575417646E0,-3.596400023E-1,1.128468037E0,-4.882999957E-1,1.281100280E0
6.580429336E0,-3.341670036E-1,9.793069959E-1,-1.968110055E-1,1.053301643E0
