"Time (s)","Linear Acceleration x (m/s^2)","Linear Acceleration y (m/s^2)","Linear Acceleration z (m/s^2)","Absolute acceleration (m/s^2)"
4.208238200E-2,-2.204770088E0,-7.770389915E-1,-1.530749947E-1,2.342697738E0
4.709399500E-2,-2.145741940E0,-8.020920157E-1,-9.273699671E-2,2.292631724E0
5.210546300E-2,-2.116097927E0,-8.140040040E-1,2.500000119E-4,2.267261127E0
5.711715300E-2,-2.101150036E0,-8.200410008E-1,9.256500006E-2,2.257402710E0
6.212877600E-2,-2.061304092E0,-8.082820177E-1,1.777250022E-1,2.221234017E0
6.714023700E-2,-1.981232047E0,-7.431449890E-1,2.171310037E-1,2.127132053E0
7.215186500E-2,-1.869151950E0,-6.728609800E-1,1.960539967E-1,1.996223454E0
7.716332800E-2,-1.806983948E0,-6.213759780E-1,1.996510029E-1,1.921239084E0
8.217499000E-2,-1.772462964E0,-5.862950087E-1,2.179410011E-1,1.879591731E0
8.718668200E-2,-1.736920953E0,-5.486789942E-1,2.063580006E-1,1.833173930E0
9.219806800E-2,-1.721459031E0,-4.940629900E-1,2.215590030E-1,1.804607388E0
9.720966800E-2,-1.774078012E0,-4.633910060E-1,2.115460038E-1,1.845761557E0
1.022213600E-1,-1.795207024E0,-4.589830041E-1,1.906429976E-1,1.862734122E0
1.072328240E-1,-1.779160976E0,-4.136419892E-1,1.964990050E-1,1.837151418E0
1.122444510E-1,-1.780202985E0,-4.112319946E-1,1.815820038E-1,1.836084542E0
1.172559150E-1,-1.767701983E0,-3.989599943E-1,1.834850013E-1,1.821429693E0
1.222676050E-1,-1.739609003E0,-4.030160010E-1,2.062959969E-1,1.797559295E0
1.272792170E-1,-1.708042979E0,-4.018900096E-1,2.237540036E-1,1.768895772E0
1.322906790E-1,-1.675470948E0,-4.050559998E-1,2.592079937E-1,1.743118483E0
1.373022920E-1,-1.602604032E0,-3.743669987E-1,2.845999897E-1,1.670175885E0
1.423139610E-1,-1.520935059E0,-3.480820060E-1,3.211579919E-1,1.592967982E0
1.473254240E-1,-1.463204980E0,-3.095160127E-1,3.618460000E-1,1.538733734E0
1.523371150E-1,-1.377686024E0,-2.802860141E-1,3.949249983E-1,1.460323520E0
1.573487460E-1,-1.255892992E0,-2.245700061E-1,4.325329959E-1,1.347139075E0
1.623602070E-1,-1.175425053E0,-1.784159988E-1,4.441539943E-1,1.269145025E0
1.673718020E-1,-1.065974951E0,-1.370840073E-1,4.561730027E-1,1.167556606E0
1.723832650E-1,-9.624570012E-1,-7.886499912E-2,5.010880232E-1,1.087948700E0
1.773948690E-1,-8.622869849E-1,-2.516699955E-2,5.662059784E-1,1.031872779E0
1.824065610E-1,-7.860289812E-1,-6.920999847E-3,6.602129936E-1,1.026533320E0
1.874180250E-1,-7.073630095E-1,1.979999943E-3,7.171229720E-1,1.007289285E0
1.924296380E-1,-6.100130081E-1,2.297299914E-2,7.565490007E-1,9.721162581E-1
1.974411020E-1,-4.828320146E-1,7.724100351E-2,7.513740063E-1,8.964685294E-1
2.024527730E-1,-3.728919923E-1,1.096839979E-1,7.282599807E-1,8.254947709E-1
2.074643900E-1,-2.750630081E-1,1.490280032E-1,7.015380263E-1,7.681305921E-1
2.124758370E-1,-1.795540005E-1,1.831970066E-1,6.502060294E-1,6.989768687E-1
2.174875270E-1,-1.234069988E-1,1.930170059E-1,5.793020129E-1,6.229572009E-1
2.224991310E-1,-1.126540005E-1,1.906789988E-1,5.428590178E-1,5.862979769E-1
2.275105920E-1,-1.250610054E-1,1.666280031E-1,5.025449991E-1,5.440189543E-1
2.325222910E-1,-1.693609953E-1,1.113540009E-1,4.605309963E-1,5.031616627E-1
2.375336780E-1,-2.237550020E-1,6.319899857E-2,4.333150089E-1,4.917543200E-1
2.425453680E-1,-2.554669976E-1,-1.861900091E-2,3.830490112E-1,4.607999556E-1
2.475569750E-1,-2.883229852E-1,-1.077120006E-1,3.381370008E-1,4.572402543E-1
2.525684380E-1,-3.199909925E-1,-2.013760060E-1,3.425540030E-1,5.101860211E-1
2.575801390E-1,-3.340530097E-1,-2.805320024E-1,3.439109921E-1,5.554857228E-1
2.625917560E-1,-3.519330025E-1,-3.760359883E-1,3.768869936E-1,6.382035010E-1
2.676032180E-1,-3.526040018E-1,-4.377360046E-1,4.084410071E-1,6.948139665E-1
2.726148110E-1,-3.758360147E-1,-5.113430023E-1,3.920179904E-1,7.459239108E-1
2.776262750E-1,-4.278799891E-1,-5.967540145E-1,3.894400001E-1,8.311799760E-1
2.826379850E-1,-4.915739894E-1,-7.012569904E-1,3.630070090E-1,9.301507632E-1
2.876496020E-1,-5.343620181E-1,-7.508630157E-1,3.160170019E-1,9.742714099E-1
2.926610680E-1,-5.592120290E-1,-7.862880230E-1,2.749179900E-1,1.003268085E0
2.976727580E-1,-6.035469770E-1,-8.197330236E-1,1.979340017E-1,1.037019312E0
3.026843760E-1,-6.783580184E-1,-8.583070040E-1,1.208399981E-1,1.100664717E0
3.076958320E-1,-7.711439729E-1,-8.829590082E-1,2.749899961E-2,1.172619219E0
3.127074460E-1,-8.467919827E-1,-8.911070228E-1,-3.271599859E-2,1.229714896E0
3.177189090E-1,-8.965219855E-1,-9.186310172E-1,-9.336899966E-2,1.286993546E0
3.227305220E-1,-9.374799728E-1,-9.461950064E-1,-1.266849935E-1,1.337984595E0
3.277422150E-1,-9.516419768E-1,-9.256389737E-1,-1.055930033E-1,1.331758178E0
3.327536780E-1,-9.930490255E-1,-9.165530205E-1,-5.493799970E-2,1.352491771E0
3.377653930E-1,-1.005192995E0,-9.096469879E-1,-4.768500105E-2,1.356519244E0
3.427770100E-1,-9.681640267E-1,-9.002220035E-1,-4.313600063E-2,1.322725199E0
3.477884630E-1,-9.481670260E-1,-9.171000123E-1,-6.687299907E-2,1.320819874E0
3.528000760E-1,-9.168739915E-1,-9.342100024E-1,-1.297090054E-1,1.315382329E0
3.578115400E-1,-8.679040074E-1,-9.512929916E-1,-1.494950056E-1,1.296365874E0
3.628231720E-1,-8.737499714E-1,-9.392259717E-1,-1.111119986E-1,1.287606428E0
3.678348640E-1,-8.122569919E-1,-9.178519845E-1,-1.552940011E-1,1.235447252E0
3.728463280E-1,-6.209340096E-1,-8.252199888E-1,-1.723800004E-1,1.047025281E0
3.778579310E-1,-6.250240207E-1,-8.283699751E-1,-2.052109987E-1,1.057810662E0
3.828696240E-1,-7.600129843E-1,-8.933830261E-1,-2.540630102E-1,1.200125402E0
3.878810870E-1,-8.253250122E-1,-9.436969757E-1,-2.791340053E-1,1.284383568E0
3.928927160E-1,-8.168069720E-1,-9.265630245E-1,-2.367700040E-1,1.257677503E0
3.979041800E-1,-7.717570066E-1,-8.803809881E-1,-1.892759949E-1,1.185961620E0
4.029158700E-1,-7.842190266E-1,-8.143669963E-1,-9.245199710E-2,1.134345828E0
4.079274970E-1,-7.737470269E-1,-7.308750153E-1,3.383199871E-2,1.064897814E0
4.129389580E-1,-8.011289835E-1,-6.539750099E-1,1.169060022E-1,1.040748757E0
4.179505720E-1,-7.958599925E-1,-5.790510178E-1,1.952739954E-1,1.003406768E0
4.229622640E-1,-7.566080093E-1,-4.992179871E-1,2.412600070E-1,9.380195464E-1
4.279737280E-1,-6.961060166E-1,-4.003059864E-1,2.816559970E-1,8.509633187E-1
4.329853510E-1,-6.751430035E-1,-3.132950068E-1,3.212909997E-1,8.106785694E-1
4.379970430E-1,-6.532580256E-1,-2.261170000E-1,3.833830059E-1,7.904792691E-1
4.430085260E-1,-6.141149998E-1,-1.387459934E-1,4.579420090E-1,7.785233248E-1
4.480201390E-1,-5.742040277E-1,-9.181299806E-2,5.304819942E-1,7.871156447E-1
4.530316170E-1,-5.382019877E-1,-4.233900085E-2,5.824080110E-1,7.941366770E-1
4.580432300E-1,-4.780510068E-1,2.552000107E-3,6.537349820E-1,8.098819078E-1
4.630546850E-1,-4.083720148E-1,5.959500000E-2,7.300149798E-1,8.385947396E-1
4.680662980E-1,-3.618060052E-1,1.215210035E-1,7.739830017E-1,8.629719733E-1
4.730779900E-1,-2.771300077E-1,2.191880047E-1,8.006700277E-1,8.751667932E-1
4.780897110E-1,-2.017250061E-1,3.239159882E-1,8.221430182E-1,9.063849557E-1
4.831011740E-1,-1.907590032E-1,3.857620060E-1,8.358049989E-1,9.400911226E-1
4.881127790E-1,-3.747259974E-1,3.626169860E-1,8.762490153E-1,1.019668078E0
4.931242420E-1,-4.277589917E-1,3.761560023E-1,9.476680160E-1,1.105687913E0
4.981358560E-1,-2.186349928E-1,5.066300035E-1,1.003247976E0,1.144981101E0
5.031475570E-1,-1.355009973E-1,6.039810181E-1,1.087654948E0,1.251457901E0
5.081590210E-1,-1.162609980E-1,6.606429815E-1,1.048457026E0,1.244679840E0
5.131706100E-1,-9.878599644E-2,6.883999705E-1,9.678239822E-1,1.191778693E0
5.181820730E-1,-2.273399942E-2,7.207819819E-1,9.354159832E-1,1.181120892E0
5.231936920E-1,1.031979993E-1,7.835890055E-1,8.641920090E-1,1.171106052E0
5.282053840E-1,2.427279949E-1,8.616229892E-1,6.834020019E-1,1.126210172E0
5.332168340E-1,4.041660130E-1,1.009464979E0,3.924849927E-1,1.156033814E0
5.382284470E-1,5.782930255E-1,1.219450951E0,4.249399900E-2,1.350292259E0
5.432401390E-1,6.792280078E-1,1.446163058E0,-3.235650063E-1,1.630163363E0
5.482516120E-1,7.026699781E-1,1.680078983E0,-6.601229906E-1,1.937052620E0
5.532632250E-1,7.469220161E-1,1.887748003E0,-9.098669887E-1,2.224711882E0
5.582746800E-1,7.908089757E-1,2.040450096E0,-1.089285970E0,2.444454817E0
5.632863700E-1,8.370149732E-1,2.130934000E0,-1.298331976E0,2.631945991E0
5.682979880E-1,7.322040200E-1,2.063416004E0,-1.591827989E0,2.706977037E0
5.733094530E-1,4.659180045E-1,1.840108991E0,-1.895248055E0,2.682358268E0
5.783210670E-1,6.426380277E-1,1.884469986E0,-2.323566914E0,3.059930386E0
5.833327490E-1,1.370390058E0,2.247034073E0,-3.076435089E0,4.048652108E0
5.883442120E-1,1.769160986E0,2.406687021E0,-3.866331100E0,4.885753697E0
5.933558300E-1,1.948438048E0,2.375829935E0,-4.377274036E0,5.348037649E0
5.983675220E-1,2.278222084E0,2.353272915E0,-4.531807899E0,5.591553640E0
6.033789860E-1,2.892127991E0,2.425257921E0,-4.502892971E0,5.875570220E0
6.083906140E-1,3.438652992E0,2.493765116E0,-4.285912991E0,6.034256294E0
6.134020780E-1,3.774339914E0,2.424632072E0,-3.815398932E0,5.889121452E0
6.184136910E-1,3.963395119E0,2.279684067E0,-3.111346006E0,5.530455161E0
6.234251550E-1,4.108527184E0,2.168560028E0,-2.308312893E0,5.187577144E0
6.284368450E-1,4.082860947E0,2.078772068E0,-1.368216991E0,4.781533703E0
6.334484520E-1,4.049460888E0,2.091274977E0,-4.159620106E-1,4.576525855E0
6.384599140E-1,3.937329054E0,2.138741016E0,2.990019917E-1,4.490676497E0
6.434715950E-1,3.692080021E0,2.235323906E0,6.989229918E-1,4.372255847E0
6.484832130E-1,3.204292059E0,2.275652885E0,8.395969868E-1,4.018831516E0
6.534946880E-1,2.559575081E0,2.233298063E0,5.559890270E-1,3.442116882E0
6.585063020E-1,1.999719977E0,2.311729908E0,1.925099939E-1,3.062684322E0
6.635179940E-1,1.273538947E0,2.257453918E0,-4.810459912E-1,2.636172394E0
6.685294380E-1,4.807919860E-1,2.127984047E0,-1.262050033E0,2.520366506E0
6.735410520E-1,-2.167239934E-1,1.897125006E0,-2.115725994E0,2.849973519E0
6.785525150E-1,-8.608469963E-1,1.636837959E0,-2.880924940E0,3.423452142E0
6.835642060E-1,-1.337517023E0,1.366433024E0,-3.477659941E0,3.968653381E0
6.885758130E-1,-1.841271996E0,1.093245983E0,-3.849849939E0,4.405316549E0
6.935872750E-1,-1.872522950E0,8.006579876E-1,-4.111093044E0,4.587862403E0
6.985989650E-1,-1.321105957E0,5.170130134E-1,-4.102641106E0,4.341000743E0
7.036105960E-1,-8.576740026E-1,1.990880072E-1,-3.729058981E0,3.831595179E0
7.086220580E-1,-4.598050117E-1,-8.302199841E-2,-3.166477919E0,3.200764863E0
7.136336710E-1,-1.035000011E-2,-3.517729938E-1,-2.579328060E0,2.603225807E0
7.186451350E-1,4.647150040E-1,-5.893020034E-1,-2.083133936E0,2.214200506E0
7.236567480E-1,1.041602015E0,-7.403069735E-1,-1.749389052E0,2.166414372E0
7.286684510E-1,1.725685000E0,-7.935479879E-1,-1.431378961E0,2.378350870E0
7.336799140E-1,2.474178076E0,-7.346739769E-1,-1.133453965E0,2.818868726E0
7.386915040E-1,3.111630917E0,-6.287450194E-1,-8.338729739E-1,3.282211358E0
7.437031960E-1,3.629592896E0,-5.014410019E-1,-5.956940055E-1,3.712174432E0
7.487146640E-1,3.988925934E0,-3.801859915E-1,-3.953360021E-1,4.026457754E0
7.537262780E-1,4.246397972E0,-2.665620148E-1,-2.148409933E-1,4.260176956E0
7.587377410E-1,4.297852039E0,-2.195589989E-1,-6.259900331E-2,4.303911818E0
7.637494320E-1,4.211684227E0,-2.271640003E-1,2.081299946E-2,4.217857358E0
7.687610490E-1,3.993571043E0,-2.825309932E-1,5.226000212E-3,4.003556013E0
7.737725110E-1,3.658612967E0,-4.003469944E-1,-8.089099824E-2,3.681340776E0
7.787841960E-1,3.263731956E0,-5.381879807E-1,-2.538200021E-1,3.317531790E0
7.837958130E-1,2.790308952E0,-7.036650181E-1,-4.688160121E-1,2.915605762E0
7.888072650E-1,2.264827967E0,-8.635749817E-1,-6.918709874E-1,2.520692947E0
7.938188780E-1,1.791697979E0,-1.033027053E0,-9.273989797E-1,2.266582319E0
7.988305710E-1,1.327437043E0,-1.209702969E0,-1.116247058E0,2.114586927E0
8.038420200E-1,8.669059873E-1,-1.350543022E0,-1.275218964E0,2.049798978E0
8.088536340E-1,4.216110110E-1,-1.508211970E0,-1.368412971E0,2.079666621E0
8.138650870E-1,1.481899992E-2,-1.673146009E0,-1.458225012E0,2.219472315E0
8.188767000E-1,-1.935929954E-1,-1.778329015E0,-1.494689941E0,2.331100674E0
8.238883840E-1,-3.809719980E-1,-1.862023950E0,-1.525895000E0,2.437340436E0
8.288998470E-1,-5.189329982E-1,-1.919446945E0,-1.535310030E0,2.512119607E0
8.339114750E-1,-5.550820231E-1,-1.940968990E0,-1.547322035E0,2.543556988E0
8.389229380E-1,-5.016440153E-1,-1.938544035E0,-1.586194992E0,2.554528185E0
8.439345520E-1,-3.348909914E-1,-1.914520979E0,-1.609261036E0,2.523343741E0
8.489462250E-1,-6.913299859E-2,-1.854501963E0,-1.624091029E0,2.466095816E0
8.539576890E-1,2.500819862E-1,-1.806311965E0,-1.621454954E0,2.440168044E0
8.589693020E-1,6.373680234E-1,-1.765151024E0,-1.579871058E0,2.453158922E0
8.639807660E-1,1.071318030E0,-1.742975950E0,-1.489825964E0,2.530863269E0
8.689923790E-1,1.494737983E0,-1.701506972E0,-1.351148963E0,2.637227926E0
8.740040710E-1,1.927067995E0,-1.681439042E0,-1.197054029E0,2.823785873E0
8.790157640E-1,2.318392992E0,-1.658875942E0,-1.029525995E0,3.030963416E0
8.840272270E-1,2.671384096E0,-1.648201942E0,-8.889039755E-1,3.262363087E0
8.890388360E-1,2.967279911E0,-1.637451053E0,-7.773650289E-1,3.477109778E0
8.940502990E-1,3.163292885E0,-1.636214972E0,-7.113689780E-1,3.631758132E0
8.990619890E-1,3.278955936E0,-1.625354052E0,-6.860139966E-1,3.723431620E0
9.040736170E-1,3.402998924E0,-1.564190030E0,-6.724349856E-1,3.805162406E0
9.090850010E-1,3.349224091E0,-1.526883006E0,-6.539459825E-1,3.738491550E0
9.140966820E-1,3.098547935E0,-1.515828967E0,-6.113380194E-1,3.503208663E0
9.191083740E-1,2.808828115E0,-1.516659021E0,-5.735039711E-1,3.243250958E0
9.241198430E-1,2.504066944E0,-1.505432963E0,-5.094469786E-1,2.965841515E0
9.291314560E-1,2.157816887E0,-1.472586989E0,-4.310649931E-1,2.647735483E0
9.341429200E-1,1.789067984E0,-1.439663053E0,-3.599080145E-1,2.324419870E0
9.391545620E-1,1.438287020E0,-1.394724965E0,-3.628639877E-1,2.036074054E0
9.441662540E-1,1.126726985E0,-1.349740982E0,-3.896999955E-1,1.800883257E0
9.491777220E-1,8.133620024E-1,-1.297554970E0,-4.474979937E-1,1.595450125E0
9.541893350E-1,5.506160259E-1,-1.226204991E0,-5.363919735E-1,1.447229435E0
9.592008090E-1,3.144260049E-1,-1.140470028E0,-6.182249784E-1,1.334817486E0
9.642124220E-1,1.141979992E-1,-1.035570025E0,-6.737949848E-1,1.240744189E0
9.692241140E-1,-4.452899843E-2,-9.014440179E-1,-7.011489868E-1,1.142888468E0
9.742355830E-1,-1.591880023E-1,-7.743149996E-1,-7.204970121E-1,1.069588932E0
9.792471960E-1,-2.106329948E-1,-6.159830093E-1,-7.320510149E-1,9.796427995E-1
9.842586650E-1,-2.472639978E-1,-4.240359962E-1,-7.314400077E-1,8.808805228E-1
9.892703550E-1,-2.324610054E-1,-2.272980064E-1,-7.376180291E-1,8.060910989E-1
9.942819820E-1,-2.140599936E-1,-4.727699980E-2,-7.317450047E-1,7.638766572E-1
9.992936720E-1,-1.874330044E-1,1.351529956E-1,-7.352830172E-1,7.707389822E-1
1.004305136E0,-1.527480036E-1,3.056200147E-1,-7.434629798E-1,8.182131436E-1
1.009316735E0,-7.540600002E-2,4.808390141E-1,-7.401620150E-1,8.858510206E-1
1.014328199E0,-1.686099917E-2,6.536880136E-1,-7.351660132E-1,9.839011024E-1
1.019339817E0,7.240600139E-2,8.050230145E-1,-7.101160288E-1,1.075904019E0
1.024351509E0,1.451350003E-1,9.086189866E-1,-6.447479725E-1,1.123544649E0
1.029362973E0,2.088239938E-1,9.884999990E-1,-5.285720229E-1,1.140231596E0
1.034374586E0,2.726530135E-1,1.050780058E0,-3.774200082E-1,1.149314691E0
1.039386050E0,3.053900003E-1,1.070032001E0,-1.886070073E-1,1.128629318E0
1.044397667E0,2.996729910E-1,1.017521977E0,6.812999956E-3,1.060755058E0
1.049409359E0,2.680279911E-1,9.264640212E-1,2.166579962E-1,9.884914132E-1
1.054420838E0,2.579190135E-1,8.022339940E-1,3.997020125E-1,9.326646222E-1
1.059432451E0,2.339030057E-1,6.589750051E-1,4.499039948E-1,8.314879903E-1
1.064443915E0,1.615000069E-1,4.056729972E-1,4.010440111E-1,5.928651885E-1
1.069455605E0,1.604599953E-1,2.000340074E-1,3.118120134E-1,4.037174085E-1
1.074467223E0,1.822260022E-1,-3.494000062E-3,1.996870041E-1,2.703579544E-1
1.079478674E0,1.912930012E-1,-2.072879970E-1,8.150599897E-2,2.936061203E-1
1.084490288E0,2.132840008E-1,-3.970530033E-1,-4.706899822E-2,4.531629321E-1
1.089501746E0,2.986170053E-1,-5.345339775E-1,-1.348399967E-1,6.269613335E-1
1.094513436E0,3.849169910E-1,-6.459590197E-1,-1.853870004E-1,7.744627073E-1
1.099525054E0,4.952040017E-1,-7.217400074E-1,-2.162780017E-1,9.016162241E-1
1.104536515E0,6.425200105E-1,-7.403550148E-1,-2.326579988E-1,1.007515388E0
1.109548129E0,9.256139994E-1,-6.732280254E-1,-2.464559972E-1,1.170785125E0
1.114559821E0,1.136752963E0,-6.182579994E-1,-2.693809867E-1,1.321747468E0
1.119571285E0,1.294903994E0,-5.394160151E-1,-3.151009977E-1,1.437718550E0
1.124582960E0,1.413694978E0,-4.676209986E-1,-3.391889930E-1,1.527171261E0
1.129594577E0,1.417984962E0,-4.146929979E-1,-3.725650012E-1,1.523632605E0
1.134606035E0,1.283378959E0,-3.732759953E-1,-3.594990075E-1,1.384065048E0
1.139617648E0,1.162665009E0,-3.170439899E-1,-2.944360077E-1,1.240564137E0
1.144629341E0,1.011474013E0,-2.269040048E-1,-2.418330014E-1,1.064447419E0
1.149640804E0,7.933790088E-1,-2.512890100E-1,-2.060929984E-1,8.573626666E-1
1.154652418E0,6.541290283E-1,-2.274489999E-1,-1.033329964E-1,7.002110692E-1
1.159663896E0,5.220239758E-1,-1.865289956E-1,-9.922999889E-3,5.544371592E-1
1.164675510E0,4.338710010E-1,-1.788579971E-1,4.636200145E-2,4.715757244E-1
1.169687197E0,3.769510090E-1,-1.494459957E-1,7.820200175E-2,4.129669744E-1
1.174698660E0,3.617449999E-1,-1.269650012E-1,1.279480010E-1,4.041661137E-1
1.179710279E0,3.846769929E-1,-1.019160002E-1,1.299750060E-1,4.186367902E-1
1.184721742E0,4.445169866E-1,-9.816300124E-2,1.482080072E-1,4.787451719E-1
1.189733457E0,5.539929867E-1,-1.108909994E-1,1.587249935E-1,5.868548940E-1
1.194745074E0,7.045590281E-1,-1.352690011E-1,1.687400043E-1,7.370036064E-1
1.199756764E0,8.763790131E-1,-1.329299957E-1,1.970739961E-1,9.080466498E-1
1.204768213E0,1.047801971E0,-1.206400022E-1,1.970770061E-1,1.072978251E0
1.209779826E0,1.237501979E0,-3.617800027E-2,1.888509989E-1,1.252351666E0
1.214791276E0,1.410192013E0,1.180600002E-1,1.708700061E-1,1.425403885E0
1.219802889E0,1.552579999E0,3.421590030E-1,1.929019988E-1,1.601495744E0
1.224814582E0,1.651772022E0,6.290010214E-1,2.616429925E-1,1.786742890E0
1.229826284E0,1.733744979E0,9.332389832E-1,3.330309987E-1,1.996926713E0
1.234837671E0,1.686792016E0,1.192026019E0,3.795770109E-1,2.100064771E0
1.239849361E0,1.553406000E0,1.402907968E0,3.445909917E-1,2.121311839E0
1.244860814E0,1.273282051E0,1.546684980E0,3.004690111E-1,2.025774725E0
1.249872428E0,1.032850981E0,1.666411042E0,1.517249942E-1,1.966399599E0
1.254883905E0,8.298709989E-1,1.728587031E0,-4.195100069E-2,1.917930887E0
1.259895519E0,6.815019846E-1,1.788254023E0,-2.089599967E-1,1.925087449E0
1.264907211E0,4.903770089E-1,1.799973965E0,-3.856070042E-1,1.905011456E0
1.269918685E0,2.451120019E-1,1.756564021E0,-5.313969851E-1,1.851480437E0
1.274930298E0,-3.226900101E-2,1.674734950E0,-7.848830223E-1,1.849816153E0
1.279941762E0,-3.771350086E-1,1.554435968E0,-1.102764964E0,1.942831068E0
1.284953370E0,-6.718440056E-1,1.374089003E0,-1.453680038E0,2.110137581E0
1.289965062E0,-9.735829830E-1,1.171926022E0,-1.988077998E0,2.504741215E0
1.294976536E0,-1.169787049E0,8.957170248E-1,-2.434278965E0,2.845421728E0
1.299988226E0,-1.570988059E0,5.487089753E-1,-2.808475018E0,3.264447418E0
1.304999844E0,-1.979776978E0,1.482550055E-1,-3.088821888E0,3.671827486E0
1.310011295E0,-2.443659067E0,-2.859190106E-1,-3.275312901E0,4.096448939E0
1.315022909E0,-2.925451994E0,-7.100980282E-1,-3.412514925E0,4.550578721E0
1.320034387E0,-3.408005953E0,-1.085091949E0,-3.390553951E0,4.928263914E0
1.325046077E0,-3.979064941E0,-1.551509976E0,-3.369838953E0,5.440216502E0
1.330057690E0,-4.384969234E0,-1.936090946E0,-3.139343977E0,5.729911338E0
1.335069151E0,-4.674983978E0,-2.247906923E0,-2.834013939E0,5.911023240E0
1.340080755E0,-4.790437222E0,-2.460494995E0,-2.501187086E0,5.937866724E0
1.345092447E0,-4.744473934E0,-2.550159931E0,-2.177815914E0,5.810011252E0
1.350103896E0,-4.524992943E0,-2.517517090E0,-1.899639964E0,5.515621943E0
1.355115509E0,-4.126030922E0,-2.294291019E0,-1.660066009E0,5.004370250E0
1.360126982E0,-3.488605022E0,-1.867861032E0,-1.383049965E0,4.191908521E0
1.365138672E0,-2.617958069E0,-1.245036006E0,-1.082895994E0,3.094589285E0
1.370150289E0,-1.545220971E0,-4.658609927E-1,-7.052479982E-1,1.761280515E0
1.375161727E0,-3.505280018E-1,4.116030037E-1,-2.933520079E-1,6.150953692E-1
1.380173340E0,9.029290080E-1,1.249346018E0,7.370100170E-2,1.543236244E0
1.385184804E0,2.219343901E0,1.988816023E0,4.025709927E-1,3.007148138E0
1.390196484E0,3.740777016E0,2.807225943E0,7.183009982E-1,4.731795272E0
1.395208101E0,5.205537796E0,3.503741026E0,9.355769753E-1,6.344220141E0
1.400219792E0,6.285275936E0,3.906232119E0,1.059911966E0,7.475744534E0
1.405231494E0,6.806534767E0,4.021963120E0,1.098906040E0,7.982023387E0
1.410242881E0,6.956546783E0,3.932317972E0,1.029013991E0,8.057017909E0
1.415254328E0,6.781325817E0,3.788069963E0,8.836830258E-1,7.817720229E0
1.420266019E0,6.481979847E0,3.512612104E0,8.255159855E-1,7.418624076E0
1.425277634E0,6.044375896E0,3.122715950E0,7.087200284E-1,6.840184132E0
1.430289326E0,5.313092232E0,2.541780949E0,5.377089977E-1,5.914281902E0
1.435300713E0,4.402327061E0,1.834367990E0,3.098199964E-1,4.779265415E0
1.440312388E0,3.380456924E0,1.115242958E0,1.178049967E-1,3.561619560E0
1.445323852E0,2.333470106E0,4.373730123E-1,3.634199873E-2,2.374383842E0
1.450335470E0,1.457695961E0,-1.478680074E-1,4.079600051E-2,1.465744444E0
1.455346934E0,7.667980194E-1,-6.650660038E-1,1.607549936E-1,1.027683881E0
1.460358561E0,1.170829982E-1,-1.120905995E0,3.122650087E-1,1.169464884E0
1.465370253E0,-4.198029935E-1,-1.461884022E0,4.558559954E-1,1.587811114E0
1.470381717E0,-9.160109758E-1,-1.769366026E0,5.510209799E-1,2.067209801E0
1.475393340E0,-1.355144978E0,-2.007493019E0,6.048799753E-1,2.496462681E0
1.480404804E0,-1.560529947E0,-2.133191109E0,6.775259972E-1,2.728515988E0
1.485416494E0,-1.577659965E0,-2.136899948E0,7.019950151E-1,2.747389553E0
1.490428097E0,-1.607318044E0,-2.107144117E0,8.075190187E-1,2.770489955E0
1.495439558E0,-1.575446010E0,-2.005599976E0,9.565340281E-1,2.723860998E0
1.500451172E0,-1.391002059E0,-1.813089013E0,1.063441992E0,2.520533151E0
1.505462635E0,-1.132637978E0,-1.586961031E0,1.210350037E0,2.294833613E0
1.510474326E0,-8.383949995E-1,-1.348701954E0,1.333243966E0,2.073509732E0
1.515485934E0,-5.175979733E-1,-1.107831955E0,1.343981981E0,1.816999413E0
1.520497395E0,-1.569280028E-1,-8.950030208E-1,1.211002946E0,1.513996347E0
1.525509086E0,1.577329934E-1,-6.752859950E-1,1.110231996E0,1.309009533E0
1.530520693E0,4.448220134E-1,-4.965830147E-1,1.047145009E0,1.241359732E0
1.535532384E0,6.640340090E-1,-3.276230097E-1,9.807689786E-1,1.228896168E0
1.540543847E0,7.992540002E-1,-1.753890067E-1,9.131090045E-1,1.226106160E0
1.545555470E0,8.694999814E-1,-3.726899996E-2,8.044000268E-1,1.185106999E0
1.550566934E0,8.651430011E-1,5.823000148E-2,6.530539989E-1,1.085514934E0
1.555578547E0,8.045120239E-1,1.112430021E-1,4.784600139E-1,9.426232477E-1
1.560590240E0,7.237809896E-1,7.876200229E-2,2.714999914E-1,7.770293555E-1
1.565601703E0,6.394609809E-1,1.321000047E-3,1.303520054E-1,6.526130066E-1
1.570613294E0,5.536239743E-1,-1.235829964E-1,4.831700027E-2,5.693037805E-1
1.575624757E0,4.889859855E-1,-2.745490074E-1,-2.554499917E-2,5.613706427E-1
1.580636471E0,4.561299980E-1,-4.445720017E-1,-6.154299900E-2,6.399112286E-1
1.585647857E0,4.443030059E-1,-5.860580206E-1,-4.035000131E-2,7.365441516E-1
1.590659547E0,4.570949972E-1,-7.136160135E-1,4.074800014E-2,8.484362384E-1
1.595671172E0,4.980059862E-1,-8.275970221E-1,2.121820003E-1,9.889125313E-1
1.600682864E0,5.747849941E-1,-9.475529790E-1,4.247829914E-1,1.186876163E0
1.605694328E0,6.733289957E-1,-1.067741036E0,6.744760275E-1,1.431209548E0
1.610705946E0,7.791820168E-1,-1.197705030E0,9.307320118E-1,1.705251897E0
1.615717410E0,9.091219902E-1,-1.318266988E0,1.155902982E0,1.974953758E0
1.620729037E0,1.068094969E0,-1.386315942E0,1.328891039E0,2.197418974E0
1.625740729E0,1.234913945E0,-1.420943975E0,1.476379037E0,2.392444209E0
1.630752418E0,1.340670943E0,-1.419713020E0,1.497841954E0,2.460998610E0
1.635763804E0,1.380998015E0,-1.394580960E0,1.416900039E0,2.420664639E0
1.640775495E0,1.373270035E0,-1.338348985E0,1.254621029E0,2.291532788E0
1.645786986E0,1.301375985E0,-1.258177996E0,1.063048005E0,2.099205179E0
1.650798600E0,1.168372989E0,-1.134907007E0,9.206539989E-1,1.871019279E0
1.655810044E0,9.197760224E-1,-1.011582017E0,8.725810051E-1,1.621938260E0
1.660821735E0,5.733749866E-1,-8.798360229E-1,8.536890149E-1,1.353386581E0
1.665833352E0,1.964900047E-1,-7.730849981E-1,8.662710190E-1,1.177579812E0
1.670844813E0,-1.592600048E-1,-6.816920042E-1,8.448089957E-1,1.097164517E0
1.675856427E0,-5.109739900E-1,-6.008329988E-1,8.461290002E-1,1.156732033E0
1.680867890E0,-8.036540151E-1,-5.424669981E-1,8.118979931E-1,1.264637723E0
1.685879571E0,-1.023545980E0,-4.754819870E-1,7.041050196E-1,1.330223054E0
1.690891188E0,-1.136252999E0,-4.097310007E-1,5.667660236E-1,1.334231650E0
1.695902670E0,-1.143087983E0,-3.502979875E-1,3.729850054E-1,1.252388371E0
1.700914283E0,-1.043063998E0,-2.857860029E-1,2.008679956E-1,1.100001862E0
1.705925970E0,-8.442419767E-1,-2.097339928E-1,1.308030039E-1,8.796830616E-1
1.710937434E0,-6.076629758E-1,-1.369470060E-1,1.480479985E-1,6.402554057E-1
1.715949047E0,-3.692899942E-1,-6.534499675E-2,2.802090049E-1,4.681475781E-1
1.720960511E0,-1.479659975E-1,7.381999865E-3,4.425230026E-1,4.666637314E-1
1.725972201E0,9.162800014E-2,7.880199701E-2,5.552060008E-1,5.682069592E-1
1.730983823E0,3.348639905E-1,1.440819949E-1,6.474530101E-1,7.430268593E-1
1.735995284E0,6.652979851E-1,2.243220061E-1,7.590540051E-1,1.033975219E0
1.741006884E0,1.020249963E0,2.979159951E-1,8.940169811E-1,1.388859348E0
1.746018576E0,1.369212031E0,3.242929876E-1,1.098114014E0,1.784870280E0
1.751030039E0,1.691848993E0,3.133830130E-1,1.297590017E0,2.155064218E0
1.756041653E0,1.956596971E0,2.345920056E-1,1.455492973E0,2.449849977E0
1.761053345E0,2.093085051E0,9.105599672E-2,1.582561016E0,2.625603853E0
1.766064833E0,2.207367897E0,-8.347599953E-2,1.698569059E0,2.786499260E0
1.771076446E0,2.297976017E0,-2.433049977E-1,1.785825014E0,2.920455800E0
1.776087896E0,2.205384970E0,-4.402810037E-1,1.828788996E0,2.898627161E0
1.781099509E0,1.932945013E0,-6.737539768E-1,1.814610004E0,2.735512806E0
1.786110958E0,1.565196037E0,-9.123880267E-1,1.684744000E0,2.473995330E0
1.791122648E0,1.174147010E0,-1.131479025E0,1.501487970E0,2.216603733E0
1.796134265E0,8.028140068E-1,-1.304970980E0,1.202146053E0,1.947463664E0
1.801145956E0,4.366460145E-1,-1.440055966E0,8.055310249E-1,1.706839524E0
1.806157419E0,8.274599910E-2,-1.555866957E0,3.872919977E-1,1.605479361E0
1.811169028E0,-2.229949981E-1,-1.642819047E0,-5.351999775E-3,1.657893191E0
1.816180491E0,-4.806990027E-1,-1.700914979E0,-3.157959878E-1,1.795525105E0
1.821192105E0,-7.094380260E-1,-1.742092967E0,-4.605399966E-1,1.936565854E0
1.826203568E0,-9.355919957E-1,-1.773534060E0,-3.918080032E-1,2.043102776E0
1.831215258E0,-1.137617946E0,-1.802418947E0,-1.353580058E-1,2.135699052E0
1.836226862E0,-1.327536941E0,-1.833556056E0,2.307939976E-1,2.275422600E0
1.841238552E0,-1.507900953E0,-1.871780038E0,6.311020255E-1,2.485078583E0
1.846249929E0,-1.652668953E0,-1.900408030E0,9.658420086E-1,2.697353542E0
1.851261619E0,-1.769353032E0,-1.912328005E0,1.156520963E0,2.850464749E0
1.856273074E0,-1.805724978E0,-1.907628059E0,1.208242059E0,2.891286285E0
1.861284687E0,-1.747728944E0,-1.850471973E0,1.173308969E0,2.802758805E0
1.866296147E0,-1.583593011E0,-1.762426972E0,1.103921056E0,2.613916096E0
1.871307837E0,-1.629361987E0,-1.782317996E0,1.052338004E0,2.634177898E0
1.876319434E0,-1.672893047E0,-1.793040991E0,9.177669883E-1,2.618370369E0
1.881330896E0,-1.221387982E0,-1.593623042E0,5.707790256E-1,2.087393518E0
1.886342509E0,-8.774719834E-1,-1.392199039E0,1.047369987E-1,1.648983046E0
1.891353964E0,-4.959680140E-1,-9.766420126E-1,-2.267819941E-1,1.118590168E0
1.896365654E0,-2.235250026E-1,-4.703620076E-1,-5.508220196E-1,7.580295128E-1
1.901377251E0,1.654499955E-2,1.271840036E-1,-7.028250098E-1,7.144315938E-1
1.906388713E0,1.362189949E-1,7.836359739E-1,-5.372040272E-1,9.598068144E-1
1.911400326E0,2.172890007E-1,1.379816055E0,-2.126329988E-1,1.412911762E0
1.916411790E0,2.482170016E-1,1.911774993E0,-1.901699975E-2,1.927915182E0
1.921423480E0,1.119790003E-1,2.324616909E0,-3.832040131E-1,2.358649695E0
1.926435113E0,-2.687729895E-1,2.570494890E0,-1.437526941E0,2.957391859E0
1.931446574E0,-7.018719912E-1,2.646881104E0,-2.948554993E0,4.024000548E0
1.936458265E0,-9.645479918E-1,2.694617987E0,-4.533740997E0,5.361541416E0
1.941469871E0,-9.366080165E-1,2.804219007E0,-5.727592945E0,6.445634163E0
1.946481561E0,-5.474050045E-1,3.042263031E0,-6.207537174E0,6.934589704E0
1.951493016E0,2.433229983E-1,3.312711000E0,-5.859823227E0,6.735784179E0
1.956504629E0,1.208600998E0,3.431195974E0,-4.796035767E0,6.019616372E0
1.961516107E0,1.963649035E0,3.227823019E0,-3.266854048E0,4.994706632E0
1.966527720E0,2.589845896E0,2.872518063E0,-1.518821955E0,4.155175317E0
1.971539417E0,3.417885065E0,2.568869114E0,1.977950037E-1,4.280204400E0
1.976550881E0,4.312263012E0,2.317178011E0,1.475036025E0,5.112793512E0
1.981562494E0,5.051840782E0,2.043634892E0,2.177181005E0,5.868360588E0
1.986573967E0,5.575447083E0,1.734145999E0,2.306302071E0,6.277889913E0
1.991585580E0,5.817159176E0,1.381759048E0,2.019016981E0,6.310707449E0
1.996597283E0,5.722693920E0,9.914150238E-1,1.555083036E0,6.012521327E0
2.001608746E0,5.405181885E0,6.278349757E-1,9.647390246E-1,5.526381216E0
2.006620360E0,4.771662235E0,2.441529930E-1,3.033100069E-1,4.787522129E0
2.011631828E0,4.007155895E0,-9.302899987E-2,-2.562719882E-1,4.016419811E0
2.016643442E0,3.141295910E0,-3.453969955E-1,-6.747019887E-1,3.231448878E0
2.021654905E0,2.239759922E0,-4.845890105E-1,-9.265570045E-1,2.471812877E0
2.026666590E0,1.351073027E0,-5.088769794E-1,-1.004161954E0,1.758606077E0
2.031678283E0,5.509240031E-1,-4.048399925E-1,-1.009035945E0,1.218838059E0
2.036689684E0,-1.186349988E-1,-2.453030050E-1,-9.485239983E-1,9.868868235E-1
2.041701375E0,-6.285830140E-1,-3.124400042E-2,-8.941640258E-1,1.093445059E0
2.046712990E0,-9.337599874E-1,2.028100044E-1,-8.432440162E-1,1.274401853E0
2.051724463E0,-1.075678945E0,4.728530049E-1,-8.234260082E-1,1.434818995E0
2.056736076E0,-1.079776049E0,7.113289833E-1,-8.264070153E-1,1.534553288E0
2.061747559E0,-9.781010151E-1,9.159550071E-1,-8.927170038E-1,1.610154905E0
2.066759172E0,-7.941290140E-1,1.041380048E0,-1.028898954E0,1.665456800E0
2.071770864E0,-5.731149912E-1,1.128316045E0,-1.185093045E0,1.733782978E0
2.076782343E0,-3.887419999E-1,1.174425006E0,-1.318655968E0,1.808106191E0
2.081794033E0,-2.070990056E-1,1.148648024E0,-1.365530014E0,1.796372595E0
2.086805651E0,-1.232639998E-1,1.048683047E0,-1.292466044E0,1.668951354E0
2.091817121E0,-1.857019961E-1,8.542990088E-1,-1.094203949E0,1.400569281E0
2.096828735E0,-4.120270014E-1,5.866050124E-1,-8.144999743E-1,1.085026220E0
2.101840222E0,-6.761100292E-1,2.720929980E-1,-4.695799947E-1,8.669860106E-1
2.106851912E0,-9.464169741E-1,-7.238899916E-2,-1.033309996E-1,9.547892707E-1
2.111863530E0,-1.199229002E0,-4.155800045E-1,2.045280039E-1,1.285569385E0
2.116874996E0,-1.395795941E0,-7.407969832E-1,4.788640141E-1,1.651162386E0
2.121886610E0,-1.482769966E0,-9.910280108E-1,7.346569896E-1,1.928850482E0
2.126898297E0,-1.498821974E0,-1.211966991E0,9.332090020E-1,2.141543915E0
2.131909684E0,-1.393583059E0,-1.373134971E0,1.081205964E0,2.235303051E0
2.136921384E0,-1.257712007E0,-1.499899030E0,1.224274993E0,2.308762840E0
2.141932848E0,-1.039914012E0,-1.564669967E0,1.335261941E0,2.304894294E0
2.146944461E0,-7.353919744E-1,-1.584203959E0,1.404984951E0,2.241536583E0
2.151955925E0,-3.775799870E-1,-1.553697944E0,1.400408030E0,2.125485026E0
2.156967615E0,2.645800076E-2,-1.456390023E0,1.317038059E0,1.963761996E0
2.161979232E0,4.386140108E-1,-1.301820993E0,1.174116969E0,1.807116711E0
2.166990923E0,8.615710139E-1,-1.089944959E0,9.571189880E-1,1.687116292E0
2.172002386E0,1.213096976E0,-8.621929884E-1,6.549860239E-1,1.626034352E0
2.177014009E0,1.522163987E0,-6.237109900E-1,3.095439970E-1,1.673862625E0
2.182025472E0,1.800328970E0,-3.860119879E-1,-5.325600132E-2,1.842016791E0
2.187037076E0,2.026098967E0,-2.131710052E-1,-4.779669940E-1,2.092599185E0
2.192048540E0,2.218046904E0,-8.558999747E-2,-9.176020026E-1,2.401884916E0
2.197060134E0,2.349701881E0,-9.963000193E-3,-1.231287956E0,2.652784994E0
2.202071827E0,2.413791895E0,-1.702699997E-2,-1.453305960E0,2.817583973E0
2.207083290E0,2.342622042E0,-8.962299675E-2,-1.607362986E0,2.842450717E0
2.212094894E0,2.144597054E0,-2.036709934E-1,-1.614228964E0,2.691934907E0
2.217106586E0,1.879210949E0,-3.497489989E-1,-1.489915013E0,2.423552124E0
2.222118055E0,1.555485964E0,-5.352929831E-1,-1.228965044E0,2.053394809E0
2.227129668E0,1.203464985E0,-7.247250080E-1,-8.613560200E-1,1.647873933E0
2.232141131E0,8.269119859E-1,-9.111179709E-1,-4.277450144E-1,1.302645457E0
2.237152730E0,4.595519900E-1,-1.091518044E0,1.159800030E-2,1.184370798E0
2.242164193E0,8.378999680E-2,-1.264646053E0,4.266600013E-1,1.337306682E0
2.247175875E0,-3.006399870E-1,-1.444870949E0,7.701219916E-1,1.664669439E0
2.252187492E0,-6.678019762E-1,-1.598703980E0,1.051849961E0,2.026870059E0
2.257198934E0,-9.822319746E-1,-1.742926002E0,1.240897059E0,2.354229430E0
2.262210624E0,-1.241845965E0,-1.844043016E0,1.330283999E0,2.590816776E0
2.267222241E0,-1.396687984E0,-1.887717962E0,1.430034041E0,2.749402442E0
2.272233680E0,-1.468353987E0,-1.895491004E0,1.482661963E0,2.819084261E0
2.277245293E0,-1.452113032E0,-1.869755983E0,1.495529056E0,2.800219072E0
2.282256762E0,-1.364529014E0,-1.796151042E0,1.494938970E0,2.706093220E0
2.287268375E0,-1.241428971E0,-1.700994968E0,1.514562964E0,2.593921885E0
2.292280068E0,-1.077844024E0,-1.581884027E0,1.497194052E0,2.430163542E0
2.297291531E0,-9.190530181E-1,-1.462743998E0,1.426195025E0,2.240158633E0
2.302303135E0,-7.720530033E-1,-1.331604958E0,1.332721949E0,2.036021954E0
2.307314598E0,-6.129739881E-1,-1.186079979E0,1.226109028E0,1.812695831E0
2.312326217E0,-4.422250092E-1,-1.042490005E0,1.018625975E0,1.523137304E0
2.317337909E0,-2.518349886E-1,-8.966190219E-1,8.143360019E-1,1.237129603E0
2.322349372E0,-5.842300132E-2,-7.628880143E-1,6.405460238E-1,9.978529842E-1
2.327360986E0,1.103470027E-1,-6.484599710E-1,4.957289994E-1,8.236650021E-1
2.332372449E0,2.554019988E-1,-5.915880203E-1,3.854570091E-1,7.508552941E-1
2.337384073E0,3.729670048E-1,-5.611100197E-1,3.152909875E-1,7.438798610E-1
2.342395536E0,4.708690047E-1,-5.641630292E-1,2.836189866E-1,7.876784069E-1
2.347407227E0,5.683689713E-1,-5.791590214E-1,3.075459898E-1,8.677862614E-1
2.352418909E0,6.723859906E-1,-6.132490039E-1,3.526600003E-1,9.759848037E-1
2.357430526E0,7.551000118E-1,-6.639479995E-1,4.738909900E-1,1.111564503E0
2.362441983E0,7.846670151E-1,-7.455049753E-1,6.225180030E-1,1.248602682E0
2.367453596E0,8.067780137E-1,-8.459039927E-1,7.698439956E-1,1.399680001E0
2.372465060E0,8.053939939E-1,-9.626590014E-1,9.321720004E-1,1.563430995E0
2.377476673E0,7.813299894E-1,-1.090893030E0,1.116260052E0,1.745439961E0
2.382488156E0,7.535499930E-1,-1.246225953E0,1.361906052E0,1.993916952E0
2.387499846E0,7.073709965E-1,-1.415925980E0,1.586794019E0,2.241235232E0
2.392511472E0,6.283360124E-1,-1.595219016E0,1.807978988E0,2.491649629E0
2.397523163E0,5.643249750E-1,-1.767379045E0,1.963734031E0,2.701544505E0
2.402534626E0,5.247539878E-1,-1.903694987E0,2.054296017E0,2.849483019E0
2.407546250E0,5.264459848E-1,-1.953922033E0,2.058192968E0,2.886367091E0
2.412557636E0,5.717530251E-1,-1.896528006E0,1.992293000E0,2.809439694E0
2.417569336E0,6.249579787E-1,-1.798511982E0,1.846968055E0,2.652641857E0
2.422580799E0,6.669149995E-1,-1.643113971E0,1.674736023E0,2.439126869E0
2.427592423E0,6.951569915E-1,-1.456658006E0,1.504194975E0,2.206286090E0
2.432603886E0,6.999790072E-1,-1.246307015E0,1.361593962E0,1.974130164E0
2.437615485E0,6.845319867E-1,-1.008538008E0,1.188634992E0,1.702523450E0
2.442627177E0,6.448789835E-1,-7.469220161E-1,1.067679048E0,1.453856922E0
2.447638650E0,5.770720243E-1,-4.950140119E-1,9.363309741E-1,1.206137093E0
2.452650264E0,4.818280041E-1,-2.767829895E-1,7.967060208E-1,9.713431590E-1
2.457661956E0,4.014460146E-1,-6.357699633E-2,6.208199859E-1,7.420366514E-1
2.462673357E0,2.820050120E-1,9.913799912E-2,4.438770115E-1,5.351466818E-1
2.467685047E0,1.407950073E-1,2.185380012E-1,2.420130074E-1,3.551793741E-1
2.472696497E0,-1.704199985E-2,2.683649957E-1,6.881199777E-2,2.775703365E-1
2.477708187E0,-1.306869984E-1,2.486989945E-1,-6.772899628E-2,2.889939417E-1
2.482719574E0,-1.991920024E-1,1.954959929E-1,-1.641059965E-1,3.237698490E-1
2.487731273E0,-2.285500020E-1,1.040619984E-1,-1.890390068E-1,3.143242737E-1
2.492742888E0,-2.083709985E-1,-1.659999951E-3,-1.816100031E-1,2.764116891E-1
2.497754343E0,-1.704140007E-1,-1.072940007E-1,-1.260810047E-1,2.375907279E-1
2.502765956E0,-1.174700037E-1,-2.104379982E-1,-4.216400161E-2,2.446653957E-1
2.507777634E0,-8.937399834E-2,-2.775579989E-1,1.092050001E-1,3.113709787E-1
2.512789097E0,-1.130229980E-1,-3.373889923E-1,2.403849959E-1,4.294071221E-1
2.517800711E0,-1.542859972E-1,-3.588210046E-1,3.800590038E-1,5.449784662E-1
2.522812174E0,-2.241320014E-1,-3.610039949E-1,4.860540032E-1,6.456063293E-1
2.527823787E0,-2.914620042E-1,-3.271589875E-1,6.079760194E-1,7.494117314E-1
2.532835237E0,-3.586870134E-1,-2.908250093E-1,6.615080237E-1,8.067393787E-1
2.537846927E0,-4.026359916E-1,-2.018299997E-1,6.230170131E-1,7.687660821E-1
2.542858314E0,-4.145430028E-1,-1.391330063E-1,5.783479810E-1,7.250450205E-1
2.547870003E0,-3.908059895E-1,-7.638400048E-2,5.762850046E-1,7.004771542E-1
2.552881619E0,-3.627670109E-1,-3.025200032E-2,6.550390124E-1,7.493938854E-1
2.557893092E0,-3.236519992E-1,1.130099967E-2,8.145099878E-1,8.765300049E-1
2.562904706E0,-3.156659901E-1,2.921099961E-2,1.006106019E0,1.054868533E0
2.567916403E0,-2.706390023E-1,2.107200027E-2,1.189650059E0,1.220228159E0
2.572927867E0,-1.596920043E-1,-2.030899934E-2,1.391342998E0,1.400624621E0
2.577939480E0,-2.424100041E-2,-8.542399853E-2,1.536542058E0,1.539105708E0
2.582950943E0,1.232800037E-1,-1.886029989E-1,1.694378018E0,1.709293983E0
2.587962542E0,2.639920115E-1,-3.107829988E-1,1.766821027E0,1.813266223E0
2.592974234E0,3.886469901E-1,-4.639410079E-1,1.797713041E0,1.896855271E0
2.597985698E0,5.253400207E-1,-6.026080251E-1,1.830018044E0,1.997018931E0
2.602997388E0,6.805970073E-1,-7.482380271E-1,1.888970017E0,2.142727271E0
2.608009005E0,8.515750170E-1,-8.601199985E-1,1.943783998E0,2.289821533E0
2.613020390E0,1.030894995E0,-9.548469782E-1,2.052884102E0,2.487731975E0
2.618032080E0,1.208920002E0,-1.046800971E0,2.112524033E0,2.649535362E0
2.623043564E0,1.371994019E0,-1.119084001E0,2.208201885E0,2.830348416E0
2.628055177E0,1.485697985E0,-1.197870970E0,2.315696955E0,3.000774191E0
2.633066641E0,1.567955971E0,-1.237874985E0,2.351536989E0,3.085538302E0
2.638078254E0,1.600975037E0,-1.263309956E0,2.287623882E0,3.064685325E0
2.643089718E0,1.590883970E0,-1.257755041E0,2.150343895E0,2.955814341E0
2.648101393E0,1.601341963E0,-1.252776980E0,1.902384043E0,2.784387058E0
2.653113011E0,1.562100053E0,-1.243906975E0,1.605151057E0,2.562024796E0
2.658124472E0,1.498281002E0,-1.188380957E0,1.281636000E0,2.302104710E0
2.663136086E0,1.364701033E0,-1.110278964E0,9.725459814E-1,2.010217394E0
2.668147549E0,1.115448952E0,-1.007449985E0,6.734369993E-1,1.647027391E0
2.673159167E0,8.497719765E-1,-8.584079742E-1,4.127239883E-1,1.276447317E0
2.678170631E0,6.174340248E-1,-6.125100255E-1,2.852999866E-1,9.153083572E-1
2.683182321E0,4.134579897E-1,-2.138389945E-1,4.274399877E-1,6.319648470E-1
2.688193944E0,2.858459949E-1,3.548820019E-1,7.752709985E-1,8.992743125E-1
2.693205405E0,4.166989923E-1,1.066578031E0,9.337279797E-1,1.477523159E0
2.698217096E0,8.439679742E-1,1.844791055E0,5.875189900E-1,2.112040374E0
2.703228722E0,1.175197005E0,2.483788013E0,-2.216690034E-1,2.756706013E0
2.708240184E0,9.669049978E-1,2.897656918E0,-1.561133981E0,3.430518939E0
2.713251797E0,6.633400172E-2,3.098787069E0,-3.260962963E0,4.498973321E0
2.718263246E0,-1.122820973E0,3.326966047E0,-4.916318893E0,6.041491660E0
2.723274860E0,-1.837630987E0,3.939100027E0,-6.321637154E0,7.671798549E0
2.728286323E0,-1.884701967E0,4.995166779E0,-7.565590858E0,9.259695335E0
2.733298014E0,-1.687924027E0,6.179238796E0,-8.582530975E0,1.070943124E1
2.738309621E0,-1.751410961E0,7.007761955E0,-9.109240532E0,1.162559379E1
2.743321083E0,-2.565624952E0,7.140713215E0,-8.873674393E0,1.167537211E1
2.748332696E0,-3.759121895E0,6.743018150E0,-8.078285217E0,1.117398690E1
2.753344160E0,-4.815365791E0,6.202180862E0,-6.830889225E0,1.040748974E1
2.758355850E0,-5.509645939E0,5.628142834E0,-5.367218018E0,9.530961094E0
2.763367453E0,-5.649813175E0,4.958551884E0,-4.021008015E0,8.525029686E0
2.768378915E0,-5.584094048E0,4.145404816E0,-3.073786020E0,7.603594408E0
2.773390528E0,-5.651941776E0,3.164697886E0,-2.461247921E0,6.929466060E0
2.778401992E0,-5.808674812E0,2.131252050E0,-1.861475945E0,6.461271629E0
2.783413605E0,-5.802363873E0,1.277184010E0,-1.213850975E0,6.063997006E0
2.788425298E0,-5.452357769E0,6.575170159E-1,-6.707749963E-1,5.532673220E0
2.793436684E0,-4.862224102E0,2.315540016E-1,-2.938860059E-1,4.876598144E0
2.798448389E0,-4.011765957E0,-9.811300039E-2,-8.772999793E-2,4.013924365E0
2.803460081E0,-3.136535883E0,-3.379369974E-1,9.677999653E-3,3.154703223E0
2.808471530E0,-2.240051031E0,-5.416650176E-1,-1.928720027E-1,2.312667123E0
2.813483144E0,-1.342288017E0,-7.148969769E-1,-6.253280044E-1,1.644338749E0
2.818494602E0,-5.009750128E-1,-8.483309746E-1,-1.161777020E0,1.523275172E0
2.823506216E0,1.808059961E-1,-9.583870173E-1,-1.813282967E0,2.058929722E0
2.828517679E0,7.065269947E-1,-1.025066018E0,-2.527172089E0,2.817186451E0
2.833529307E0,1.047566056E0,-1.095095038E0,-3.267087936E0,3.601456840E0
2.838540770E0,1.185049057E0,-1.157817960E0,-3.956105947E0,4.289015967E0
2.843552456E0,1.106832027E0,-1.248321056E0,-4.574489117E0,4.869223067E0
2.848564073E0,9.074040055E-1,-1.342309952E0,-4.997489929E0,5.253578174E0
2.853575535E0,5.783460140E-1,-1.415974021E0,-5.224209785E0,5.443513059E0
2.858587148E0,1.929949969E-1,-1.429242015E0,-5.220623016E0,5.416168801E0
2.863598611E0,-2.074940056E-1,-1.409314990E0,-5.022990227E0,5.221077793E0
2.868610225E0,-6.064270139E-1,-1.299811006E0,-4.709534168E0,4.923106180E0
2.873621688E0,-9.711080194E-1,-1.159332037E0,-4.245753765E0,4.507052983E0
2.878633379E0,-1.260609984E0,-9.627860188E-1,-3.644850969E0,3.975051325E0
2.883644996E0,-1.441908956E0,-7.706800103E-1,-3.026457071E0,3.439838880E0
2.888656473E0,-1.527151942E0,-6.046869755E-1,-2.462289095E0,2.959849148E0
2.893668086E0,-1.548840046E0,-4.886699915E-1,-1.959182024E0,2.544817882E0
2.898679778E0,-1.503679991E0,-4.293070138E-1,-1.565510988E0,2.212731950E0
2.903691242E0,-1.451346993E0,-4.188050032E-1,-1.296169996E0,1.990442761E0
2.908702879E0,-1.424360991E0,-4.734120071E-1,-1.107360005E0,1.865253157E0
2.913714343E0,-1.393741965E0,-5.784549713E-1,-9.661300182E-1,1.791796314E0
2.918725971E0,-1.382894993E0,-7.048130035E-1,-8.871740103E-1,1.787802466E0
2.923737435E0,-1.382002950E0,-8.593950272E-1,-8.429120183E-1,1.832755476E0
2.928749048E0,-1.354060054E0,-1.008275986E0,-8.577870131E-1,1.893646655E0
2.933760512E0,-1.311980009E0,-1.141443014E0,-9.371380210E-1,1.975452194E0
2.938772125E0,-1.263689041E0,-1.249359012E0,-1.016767979E0,2.047345856E0
2.943783831E0,-1.216966033E0,-1.336900949E0,-1.090191960E0,2.111120315E0
2.948795295E0,-1.165431976E0,-1.361271024E0,-1.153957963E0,2.131410207E0
2.953806908E0,-1.114498019E0,-1.358579993E0,-1.209053993E0,2.132992497E0
2.958818367E0,-1.045974970E0,-1.326630950E0,-1.268203974E0,2.112428610E0
2.963829980E0,-1.002516031E0,-1.268425941E0,-1.276339054E0,2.059850515E0
2.968841444E0,-9.696990252E-1,-1.236695051E0,-1.281504035E0,2.027802614E0
2.973853134E0,-9.590259790E-1,-1.193439960E0,-1.277490020E0,1.993993610E0
2.978864752E0,-9.656019807E-1,-1.126775980E0,-1.293073058E0,1.968260457E0
2.983876218E0,-8.498539925E-1,-1.047081947E0,-1.242043018E0,1.833385740E0
2.988887832E0,-5.548740029E-1,-1.005318999E0,-1.109380007E0,1.596645060E0
2.993899529E0,-4.148859978E-1,-9.941719770E-1,-9.715059996E-1,1.450631662E0
2.998910992E0,-2.950490117E-1,-9.970610142E-1,-8.026430011E-1,1.313552577E0
3.003922606E0,-1.088239998E-1,-1.030609012E0,-6.284840107E-1,1.212018873E0
3.008934069E0,8.419000357E-2,-1.068506002E0,-4.348860085E-1,1.156684432E0
3.013945683E0,2.419939935E-1,-1.146734953E0,-2.821730077E-1,1.205480714E0
3.018957146E0,3.948459923E-1,-1.224997044E0,-1.373389959E-1,1.294365912E0
3.023968750E0,5.095530152E-1,-1.295961976E0,1.924699917E-2,1.392670875E0
3.028980213E0,5.718579888E-1,-1.364336014E0,2.046090066E-1,1.493418616E0
3.033991846E0,6.656219959E-1,-1.406103969E0,3.305499852E-1,1.590422681E0
3.039003538E0,7.263309956E-1,-1.440369964E0,4.163750112E-1,1.666010353E0
3.044015002E0,7.758380175E-1,-1.493484020E0,4.117659926E-1,1.732619514E0
3.049026635E0,7.593510151E-1,-1.532022953E0,3.117100000E-1,1.738065424E0
3.054038099E0,7.370240092E-1,-1.508280039E0,1.420889944E-1,1.684726194E0
3.059049697E0,7.137659788E-1,-1.417616963E0,-3.537999839E-2,1.587561486E0
3.064061160E0,6.946880221E-1,-1.264996052E0,-2.212529927E-1,1.460054570E0
3.069072755E0,6.255369782E-1,-1.070229053E0,-4.066599905E-1,1.304629866E0
3.074084447E0,5.125780106E-1,-8.704400063E-1,-5.841850042E-1,1.166907940E0
3.079095896E0,3.917559981E-1,-6.496419907E-1,-7.083699703E-1,1.037928462E0
3.084107509E0,2.770259976E-1,-4.108609855E-1,-7.788349986E-1,9.231111027E-1
3.089119201E0,2.005009949E-1,-1.644060016E-1,-7.647479773E-1,8.075081740E-1
3.094130669E0,1.259080023E-1,4.876499996E-2,-7.005760074E-1,7.134687045E-1
3.099142282E0,3.667100146E-2,2.256889939E-1,-5.476350188E-1,5.934512602E-1
3.104153722E0,-7.868299633E-2,3.878299892E-1,-3.660959899E-1,5.391005363E-1
3.109165335E0,-2.081680000E-1,5.114870071E-1,-1.817100048E-1,5.813530773E-1
3.114176799E0,-3.120490015E-1,5.919799805E-1,4.119300097E-2,6.704563669E-1
3.119188417E0,-4.050289989E-1,6.343299747E-1,2.789430022E-1,8.026407697E-1
3.124199881E0,-4.828749895E-1,6.367560029E-1,4.948840141E-1,9.399663027E-1
3.129211494E0,-5.459560156E-1,6.188629866E-1,7.045149803E-1,1.085080976E0
3.134223182E0,-5.806480050E-1,5.450260043E-1,9.392840266E-1,1.231446277E0
3.139234568E0,-5.737969875E-1,4.543910027E-1,1.108719945E0,1.328523271E0
3.144246259E0,-5.196089745E-1,3.884600103E-1,1.182464957E0,1.348746841E0
3.149257722E0,-5.425239801E-1,3.357320130E-1,1.158668041E0,1.322709297E0
3.154269335E0,-6.542329788E-1,3.155280054E-1,1.060889006E0,1.285715441E0
3.159280809E0,-6.898829937E-1,3.495390117E-1,9.256749749E-1,1.206229756E0
3.164292422E0,-7.982329726E-1,3.706519902E-1,7.536079884E-1,1.158656022E0
3.169303886E0,-9.008899927E-1,4.430289865E-1,6.310930252E-1,1.185814432E0
3.174315513E0,-9.889450073E-1,5.447930098E-1,5.538960099E-1,1.257621740E0
3.179327206E0,-1.074553013E0,6.301450133E-1,5.368009806E-1,1.356429950E0
3.184338650E0,-1.136986017E0,7.087489963E-1,5.059300065E-1,1.432140885E0
3.189350264E0,-1.146572948E0,7.568129897E-1,4.546329975E-1,1.447095915E0
3.194361727E0,-1.146486998E0,7.888709903E-1,3.555400074E-1,1.436369929E0
3.199373412E0,-1.127310038E0,8.069379926E-1,3.425990045E-1,1.428058445E0
3.204385030E0,-1.101032972E0,7.824119925E-1,3.089689910E-1,1.385605994E0
3.209396420E0,-1.025951028E0,7.490360141E-1,2.204640061E-1,1.289276867E0
3.214407881E0,-9.147790074E-1,6.945660114E-1,1.972019970E-1,1.165388864E0
3.219419571E0,-7.752339840E-1,5.900629759E-1,2.303130031E-1,1.001102455E0
3.224431197E0,-7.078269720E-1,4.234650135E-1,2.905769944E-1,8.745150826E-1
3.229442889E0,-6.478430033E-1,2.568649948E-1,3.982619941E-1,8.026785150E-1
3.234454247E0,-5.696870089E-1,1.238299981E-1,5.032330155E-1,7.701432493E-1
3.239465937E0,-5.064529777E-1,-2.834299952E-2,6.475830078E-1,8.225944907E-1
3.244477401E0,-4.345760047E-1,-1.850520074E-1,7.351599932E-1,8.738196410E-1
3.249489014E0,-3.661609888E-1,-3.366059959E-1,7.957490087E-1,9.383996755E-1
3.254500401E0,-2.965399921E-1,-4.877009988E-1,8.256139755E-1,1.003706465E0
3.259512091E0,-2.746210098E-1,-6.573699713E-1,8.049740195E-1,1.074958209E0
3.264523544E0,-2.365629971E-1,-8.000869751E-1,7.329609990E-1,1.110555287E0
3.269535158E0,-2.176750004E-1,-9.278500080E-1,6.458230019E-1,1.151249492E0
3.274546631E0,-1.993090063E-1,-1.039698958E0,5.686330199E-1,1.201682785E0
3.279558245E0,-1.905650049E-1,-1.122704983E0,5.015709996E-1,1.244329123E0
3.284569723E0,-1.604589969E-1,-1.181676030E0,4.730559886E-1,1.282921392E0
3.289581337E0,-9.469100088E-2,-1.209445953E0,4.948709905E-1,1.310199678E0
3.294592800E0,-2.894999925E-3,-1.206022024E0,5.836470127E-1,1.339828847E0
3.299604419E0,9.824199975E-2,-1.183367014E0,7.179039717E-1,1.387586067E0
3.304616111E0,2.231390029E-1,-1.160616994E0,8.690459728E-1,1.466991385E0
3.309627575E0,3.430770040E-1,-1.121008992E0,1.032647967E0,1.562281926E0
3.314639188E0,4.797079861E-1,-1.093258977E0,1.180179000E0,1.678736851E0
3.319650637E0,6.497730017E-1,-1.084537983E0,1.338320017E0,1.841067098E0
3.324662327E0,8.318449855E-1,-1.102020979E0,1.445098996E0,1.998681422E0
3.329673713E0,1.033270001E0,-1.148100019E0,1.546345949E0,2.185627220E0
3.334685404E0,1.220772028E0,-1.220392942E0,1.630166054E0,2.374254544E0
3.339697019E0,1.389603972E0,-1.297369957E0,1.699020028E0,2.549673913E0
3.344708483E0,1.518268943E0,-1.391003966E0,1.714519024E0,2.679479073E0
3.349720096E0,1.647374988E0,-1.513268948E0,1.686175942E0,2.801252678E0
3.354731560E0,1.779301047E0,-1.628290057E0,1.630463004E0,2.911297019E0
3.359743154E0,1.859004974E0,-1.755216002E0,1.539844036E0,2.984594171E0
3.364754618E0,1.893489957E0,-1.879701972E0,1.447639942E0,3.035497508E0
3.369766231E0,1.925536036E0,-1.965860963E0,1.315505028E0,3.050057677E0
3.374777695E0,1.923918962E0,-1.999343038E0,1.169558048E0,3.011096608E0
3.379789385E0,1.888589025E0,-1.982547045E0,9.834629893E-1,2.909374630E0
3.384801016E0,1.805130959E0,-1.903512955E0,7.473840117E-1,2.727717399E0
3.389812401E0,1.668818951E0,-1.805318952E0,4.875079989E-1,2.506351383E0
3.394824096E0,1.491742015E0,-1.678390980E0,2.082410008E-1,2.255139649E0
3.399835560E0,1.254874945E0,-1.529906988E0,-9.300400317E-2,1.980902891E0
3.404847173E0,9.845439792E-1,-1.381402969E0,-3.637210131E-1,1.734904604E0
3.409858866E0,6.663900018E-1,-1.235270023E0,-5.944039822E-1,1.524232187E0
3.414870252E0,3.124330044E-1,-1.105859995E0,-7.731459737E-1,1.385025418E0
3.419881704E0,-2.753300034E-2,-9.858090281E-1,-8.612189889E-1,1.309303499E0
3.424893394E0,-3.569369912E-1,-8.797690272E-1,-8.618339896E-1,1.282246225E0
3.429905009E0,-6.116840243E-1,-7.710279822E-1,-8.193070292E-1,1.280587952E0
3.434916483E0,-7.873700261E-1,-6.715909839E-1,-7.717059851E-1,1.290936147E0
3.439928096E0,-8.774219751E-1,-5.480350256E-1,-7.282590270E-1,1.265137511E0
3.444939555E0,-9.146999717E-1,-4.267289937E-1,-6.999400258E-1,1.228287308E0
3.449951168E0,-9.077069759E-1,-2.957839966E-1,-6.467639804E-1,1.153136494E0
3.454962632E0,-8.738870025E-1,-1.768060029E-1,-5.179619789E-1,1.031127280E0
3.459974255E0,-8.489170074E-1,-3.632200137E-2,-3.364090025E-1,9.138656303E-1
3.464985719E0,-8.141090274E-1,1.232089996E-1,-6.611300260E-2,8.260295970E-1
3.469997409E0,-7.396900058E-1,3.112660050E-1,2.814170122E-1,8.504254026E-1
3.475008815E0,-5.829330087E-1,5.396490097E-1,7.276880145E-1,1.077293736E0
3.480020505E0,-2.785179913E-1,7.938029766E-1,1.177903056E0,1.447463660E0
3.485032120E0,1.521340013E-1,1.093060970E0,1.640046000E0,1.976784744E0
3.490043584E0,8.082849979E-1,1.368276000E0,1.906455040E0,2.481949772E0
3.495055197E0,1.706403971E0,1.624214053E0,1.841833949E0,2.990357520E0
3.500066651E0,2.892069101E0,1.863286018E0,1.275063992E0,3.669017124E0
3.505078264E0,4.232044220E0,2.052046061E0,3.264620006E-1,4.714622864E0
3.510089728E0,5.457425117E0,2.188231945E0,-8.392379880E-1,5.939374408E0
3.515101365E0,6.268416882E0,2.212137938E0,-2.089543104E0,6.967983556E0
3.520112829E0,6.532533169E0,2.047295094E0,-3.311851025E0,7.604851347E0
3.525124514E0,6.374925137E0,1.772688031E0,-4.319861889E0,7.902107320E0
3.530136132E0,5.947093964E0,1.484051943E0,-5.037126064E0,7.933660931E0
3.535147593E0,5.283043861E0,1.193338990E0,-5.370265961E0,7.627212261E0
3.540159212E0,4.318282127E0,9.077090025E-1,-5.294501781E0,6.892259809E0
3.545170675E0,3.064197063E0,6.175590158E-1,-4.858511925E0,5.777181052E0
3.550182288E0,1.620036006E0,3.371990025E-1,-4.136361122E0,4.455076112E0
3.555193743E0,1.594360024E-1,1.133079976E-1,-3.071842909E0,3.078063904E0
3.560205356E0,-1.109931946E0,-4.329600185E-2,-1.924901009E0,2.222401260E0
3.565216834E0,-2.186026096E0,-1.162180007E-1,-7.540109754E-1,2.315329192E0
3.570228447E0,-2.912895918E0,-9.157700092E-2,4.592809975E-1,2.950303037E0
3.575240140E0,-3.604033947E0,8.280500025E-2,1.540009975E0,3.920146436E0
3.580251598E0,-4.015417099E0,2.783569992E-1,2.767877102E0,4.884895163E0
3.585263212E0,-4.040499210E0,5.403950214E-1,3.680949926E0,5.492454188E0
3.590274675E0,-3.569411039E0,7.444409728E-1,4.206349850E0,5.566710572E0
3.595286289E0,-2.840893984E0,8.594080210E-1,4.210328102E0,5.151322500E0
3.600297752E0,-1.985787034E0,8.877620101E-1,3.816135883E0,4.392535101E0
3.605309366E0,-9.936320186E-1,8.630819917E-1,3.158446074E0,3.421695006E0
3.610320824E0,1.219270006E-1,8.285179734E-1,2.364264011E0,2.508197070E0
3.615332437E0,1.270787001E0,8.056979775E-1,1.496083975E0,2.121866181E0
3.620343901E0,2.314904928E0,7.781339884E-1,7.098219991E-1,2.543250794E0
3.625355591E0,3.133004904E0,7.423229814E-1,1.106669977E-1,3.221647144E0
3.630367209E0,3.799420118E0,6.979460120E-1,-2.532669902E-1,3.871287388E0
3.635378665E0,4.179252148E0,6.440110207E-1,-3.822200000E-1,4.245820396E0
3.640390279E0,4.303792953E0,5.470499992E-1,-3.041090071E-1,4.349066541E0
3.645401761E0,4.299678802E0,4.860259891E-1,-8.237499744E-2,4.327845273E0
3.650413375E0,4.226756096E0,4.585730135E-1,1.839150041E-1,4.255535340E0
3.655424829E0,3.993673086E0,4.303539991E-1,4.536359906E-1,4.042327906E0
3.660436443E0,3.709563017E0,4.090340137E-1,6.279010177E-1,3.784498155E0
3.665447906E0,3.310616016E0,3.585819900E-1,6.845390201E-1,3.399610731E0
3.670459539E0,2.809453964E0,2.667360008E-1,6.573629975E-1,2.897637966E0
3.675471002E0,2.222973108E0,1.235459968E-1,5.627239943E-1,2.296417067E0
3.680482586E0,1.614647985E0,-4.745899886E-2,3.908120096E-1,1.661949006E0
3.685494279E0,1.022680998E0,-2.753419876E-1,1.970220059E-1,1.077268446E0
3.690505665E0,4.864940047E-1,-5.411769748E-1,7.674299926E-2,7.317365801E-1
3.695517361E0,3.969699889E-2,-8.163470030E-1,6.439399719E-2,8.198444169E-1
3.700528824E0,-3.343229890E-1,-1.122622967E0,1.499020010E-1,1.180899994E0
3.705540443E0,-6.656150222E-1,-1.428902984E0,3.185929954E-1,1.608200420E0
3.710551906E0,-9.258760214E-1,-1.744755030E0,5.372030139E-1,2.046949828E0
3.715563496E0,-1.127488017E0,-2.055839062E0,7.772600055E-1,2.470189586E0
3.720574959E0,-1.239699006E0,-2.328653097E0,9.935929775E-1,2.818990223E0
3.725586563E0,-1.289067984E0,-2.556027889E0,1.181830049E0,3.097046513E0
3.730598026E0,-1.251850009E0,-2.747538090E0,1.332687974E0,3.300325929E0
3.735609640E0,-1.116086006E0,-2.876859903E0,1.432214975E0,3.401942182E0
3.740621103E0,-9.127150178E-1,-2.948775053E0,1.483144045E0,3.424622501E0
3.745632730E0,-6.248260140E-1,-2.941740036E0,1.483122945E0,3.353191861E0
3.750644194E0,-2.879109979E-1,-2.860532999E0,1.456248045E0,3.222762813E0
3.755655884E0,6.738200039E-2,-2.733856916E0,1.402560949E0,3.073384322E0
3.760667502E0,4.175269902E-1,-2.556915998E0,1.319484949E0,2.907436799E0
3.765678963E0,7.413870096E-1,-2.344060898E0,1.187693000E0,2.730364601E0
3.770690582E0,1.099311948E0,-2.045034885E0,1.033331037E0,2.541343635E0
3.775702045E0,1.400897980E0,-1.726837039E0,8.608949780E-1,2.384454125E0
3.780713659E0,1.646499038E0,-1.384680986E0,6.651949883E-1,2.251840334E0
3.785725122E0,1.766463995E0,-1.046820998E0,4.731079936E-1,2.107145088E0
3.790736736E0,1.854454994E0,-7.156720161E-1,2.640579939E-1,2.005222278E0
3.795748213E0,1.888393044E0,-4.152320027E-1,3.077599965E-2,1.933751036E0
3.800759903E0,1.876561046E0,-1.671169996E-1,-2.107959986E-1,1.895743760E0
3.805771290E0,1.838695049E0,5.731200054E-2,-4.309290051E-1,1.889387191E0
3.810782937E0,1.763324976E0,2.077260017E-1,-6.402940154E-1,1.887443109E0
3.815794630E0,1.657928944E0,2.744610012E-1,-8.139669895E-1,1.867243820E0
3.820806107E0,1.541406035E0,2.790069878E-1,-9.764890075E-1,1.845889554E0
3.825817721E0,1.427431941E0,2.141239941E-1,-1.046769023E0,1.783013297E0
3.830829184E0,1.271255970E0,9.643699974E-2,-1.043499947E0,1.647508414E0
3.835840565E0,1.061903000E0,-7.902999967E-2,-9.219629765E-1,1.408509656E0
3.840852255E0,8.146690130E-1,-2.741760015E-1,-6.991950274E-1,1.108030580E0
3.845863885E0,5.748209953E-1,-4.818930030E-1,-4.243980050E-1,8.618316017E-1
3.850875348E0,3.607589900E-1,-6.806319952E-1,-1.245689988E-1,7.803360797E-1
3.855886947E0,1.927130073E-1,-8.702769876E-1,1.834129989E-1,9.100333326E-1
3.860898410E0,2.560300007E-2,-1.010030985E0,3.897320032E-1,1.082916958E0
3.865910053E0,-3.064019978E-1,-1.111469030E0,6.680049896E-1,1.332469983E0
3.870921516E0,-5.691689849E-1,-1.212846994E0,9.036290050E-1,1.616012544E0
3.875933129E0,-6.481419802E-1,-1.271085978E0,1.020073056E0,1.753937464E0
3.880944563E0,-6.126559973E-1,-1.300547004E0,1.139454961E0,1.834428382E0
3.885956176E0,-5.485579967E-1,-1.313212037E0,1.271214008E0,1.908252286E0
3.890967650E0,-5.369709730E-1,-1.325850010E0,1.427369952E0,2.020792185E0
3.895979263E0,-6.857569814E-1,-1.331271052E0,1.581653953E0,2.178112595E0
3.900990751E0,-7.704060078E-1,-1.257670999E0,1.727255940E0,2.271271635E0
3.906002441E0,-6.714469790E-1,-1.163298011E0,1.797103047E0,2.243587010E0
3.911014059E0,-5.110750198E-1,-1.082373023E0,1.866541982E0,2.217365104E0
3.916025544E0,-3.672879934E-1,-1.034137011E0,1.900570989E0,2.194654850E0
3.921037158E0,-2.741110027E-1,-1.023543000E0,1.867604971E0,2.147259985E0
3.926048534E0,-2.183369994E-1,-1.038769960E0,1.806617975E0,2.095371706E0
3.931060225E0,-1.641670018E-1,-1.075186968E0,1.679021001E0,2.000522267E0
3.936071688E0,-9.561499953E-2,-1.121045947E0,1.468387008E0,1.849877468E0
3.941083282E0,5.170299858E-2,-1.173977017E0,1.236812949E0,1.706048507E0
3.946094746E0,2.463790029E-1,-1.179072022E0,1.020581007E0,1.578765036E0
3.951106359E0,4.217410088E-1,-1.117177010E0,8.863409758E-1,1.487128197E0
3.956117813E0,5.814250112E-1,-9.719820023E-1,7.215129733E-1,1.342901719E0
3.961129426E0,6.443060040E-1,-7.455629706E-1,5.973830223E-1,1.152328445E0
3.966140890E0,6.554359794E-1,-4.859960079E-1,3.891919851E-1,9.040236966E-1
3.971152499E0,6.628329754E-1,-1.933919936E-1,1.126850024E-1,6.996041211E-1
3.976163963E0,6.642950177E-1,1.371390074E-1,-1.245089993E-1,6.896357508E-1
3.981175653E0,6.529809833E-1,4.722839892E-1,-2.757090032E-1,8.517345745E-1
3.986187016E0,6.175280213E-1,7.930999994E-1,-2.949160039E-1,1.047532298E0
3.991198629E0,5.581219792E-1,1.068495989E0,-1.682710052E-1,1.217168416E0
3.996210083E0,4.103679955E-1,1.257902026E0,9.969300032E-2,1.326897921E0
4.001221773E0,3.510020077E-1,1.334979057E0,3.780339956E-1,1.431181748E0
4.006233390E0,2.315610051E-1,1.342775941E0,5.739150047E-1,1.478528376E0
4.011244804E0,8.887999691E-3,1.252558947E0,9.678180218E-1,1.582925973E0
4.016256189E0,-2.286439985E-1,1.102571964E0,1.345075965E0,1.754187095E0
4.021267797E0,-3.402749896E-1,9.358829856E-1,1.600672960E0,1.885157276E0
4.026279489E0,-3.262369931E-1,7.261620164E-1,1.792161942E0,1.961016643E0
4.031290953E0,-2.062679976E-1,5.728300214E-1,1.918581963E0,2.012867971E0
4.036302542E0,-3.480499983E-2,4.634500146E-1,1.994721055E0,2.048147795E0
4.041314235E0,1.820410043E-1,3.742290139E-1,2.091615915E0,2.132614222E0
4.046325679E0,4.639669955E-1,3.169490099E-1,2.071243048E0,2.146105731E0
4.051337064E0,7.161380053E-1,3.034639955E-1,2.008759022E0,2.154079118E0
4.056348686E0,9.161940217E-1,3.503560126E-1,1.907801032E0,2.145195935E0
4.061360150E0,1.100124002E0,4.237700105E-1,1.704257011E0,2.072280339E0
4.066371763E0,1.286841989E0,5.258970261E-1,1.449697971E0,2.008520399E0
4.071383213E0,1.497753024E0,6.581040025E-1,1.218770027E0,2.040040534E0
4.076394826E0,1.668616056E0,8.336399794E-1,8.959410191E-1,2.069286222E0
4.081406320E0,1.773787975E0,1.033352017E0,4.571290016E-1,2.103118422E0
4.086418010E0,1.818593979E0,1.264457941E0,3.124699928E-2,2.215200740E0
4.091429397E0,1.770292044E0,1.570018053E0,-2.836250067E-1,2.383135278E0
4.096441010E0,1.670132995E0,1.933207035E0,-5.373229980E-1,2.610622467E0
4.101452474E0,1.597635031E0,2.298819065E0,-8.532130122E-1,2.926598577E0
4.106464169E0,1.524359941E0,2.614044905E0,-1.302057981E0,3.294276701E0
4.111475786E0,1.412152052E0,2.761480093E0,-1.835080981E0,3.603812971E0
4.116487248E0,1.191385031E0,2.736259937E0,-2.437477112E0,3.853285794E0
4.121498837E0,9.068549871E-1,2.548028946E0,-3.073736906E0,4.094227161E0
4.126510301E0,6.438540220E-1,2.316580057E0,-3.675282001E0,4.391900381E0
4.131521685E0,4.613870084E-1,2.207250118E0,-4.104556084E0,4.683183928E0
4.136533380E0,3.664320111E-1,2.203454971E0,-4.257259846E0,4.807675907E0
4.141544995E0,2.420080006E-1,2.255050898E0,-4.059874058E0,4.650419313E0
4.146556459E0,7.172100246E-2,2.314189911E0,-3.711087942E0,4.374104772E0
4.151568072E0,-1.655080020E-1,2.347306967E0,-3.401987076E0,4.136515316E0
4.156579536E0,-5.032230020E-1,2.356729031E0,-3.230233908E0,4.030113672E0
4.161591149E0,-9.484310150E-1,2.318449974E0,-3.250396013E0,4.103633258E0
4.166602623E0,-1.446282029E0,2.227613926E0,-3.440493107E0,4.346376460E0
4.171614236E0,-1.953791976E0,2.110486984E0,-3.771491051E0,4.742952998E0
4.176625700E0,-2.494740963E0,1.952671051E0,-4.094837189E0,5.177291600E0
4.181637294E0,-3.150346041E0,1.701455951E0,-4.245141983E0,5.553455049E0
4.186648757E0,-3.898758888E0,1.328045964E0,-4.147882938E0,5.845422125E0
4.191660371E0,-4.739786148E0,8.323569894E-1,-3.759639025E0,6.106822126E0
4.196671834E0,-5.541799068E0,3.243489861E-1,-3.144510031E0,6.380022141E0
4.201683525E0,-6.156570911E0,-1.171569973E-1,-2.402267933E0,6.609688523E0
4.206695142E0,-6.510160923E0,-4.396719933E-1,-1.647071958E0,6.729662156E0
4.211706527E0,-6.564511776E0,-5.858110189E-1,-1.007920980E0,6.667225368E0
4.216718002E0,-6.291068077E0,-5.508310199E-1,-6.234340072E-1,6.345835038E0
4.221729616E0,-5.607193947E0,-3.965120018E-1,-4.909909964E-1,5.642598505E0
4.226741084E0,-4.752443790E0,-1.209890023E-1,-5.221199989E-1,4.782569353E0
4.231752775E0,-3.740113974E0,2.360969931E-1,-6.431589723E-1,3.802347668E0
4.236764392E0,-2.631844997E0,6.427869797E-1,-7.733719945E-1,2.817425675E0
4.241775868E0,-1.529958963E0,1.091892958E0,-9.250550270E-1,2.094929942E0
4.246787252E0,-4.216740131E-1,1.495442033E0,-1.088266015E0,1.896965673E0
4.251798866E0,6.047570109E-1,1.846307993E0,-1.291973948E0,2.333191147E0
4.256810558E0,1.521059036E0,2.115854025E0,-1.503039956E0,3.008253306E0
4.261822021E0,2.253563881E0,2.296947956E0,-1.690595984E0,3.634918825E0
4.266833635E0,2.786170959E0,2.351368904E0,-1.871680975E0,4.098154952E0
4.271845098E0,3.062135935E0,2.310277939E0,-2.022643089E0,4.336490021E0
4.276856726E0,3.131975889E0,2.190452099E0,-2.169907093E0,4.394980109E0
4.281868189E0,3.048451900E0,2.018198967E0,-2.277504921E0,4.307344277E0
4.286879803E0,2.804387093E0,1.771975994E0,-2.350157022E0,4.065430349E0
4.291891257E0,2.428193092E0,1.430230975E0,-2.385394096E0,3.692125043E0
4.296902642E0,1.955374956E0,1.031214952E0,-2.397396088E0,3.261043314E0
4.301914332E0,1.422508001E0,5.759599805E-1,-2.289473057E0,2.756255756E0
4.306925723E0,9.221670032E-1,1.388189942E-1,-2.142481089E0,2.336640304E0
4.311937413E0,4.498110116E-1,-2.873480022E-1,-1.959879994E0,2.031262763E0
4.316949029E0,1.727600023E-2,-6.882619858E-1,-1.782554030E0,1.910890340E0
4.321960411E0,-3.966149986E-1,-1.079926968E0,-1.604745984E0,1.974526623E0
4.326972101E0,-7.725899816E-1,-1.438158989E0,-1.443238020E0,2.179021005E0
4.331983579E0,-1.110684991E0,-1.770161033E0,-1.281160951E0,2.451216966E0
4.336995192E0,-1.406018019E0,-2.080776930E0,-1.130125046E0,2.753852196E0
4.342006579E0,-1.704071045E0,-2.365243912E0,-1.018723011E0,3.088046868E0
4.347018264E0,-1.935436964E0,-2.616403103E0,-9.372609854E-1,3.386729926E0
4.352029728E0,-2.045172930E0,-2.795970917E0,-9.335920215E-1,3.587726264E0
4.357041356E0,-2.157737017E0,-2.973366022E0,-9.812769890E-1,3.802583209E0
4.362052820E0,-2.165416956E0,-3.048053026E0,-1.054167032E0,3.884704104E0
4.367064433E0,-2.137672901E0,-3.060674906E0,-1.169250965E0,3.912099709E0
4.372075882E0,-2.055248022E0,-3.020780087E0,-1.302719951E0,3.878947800E0
4.377087495E0,-1.980252981E0,-2.933108091E0,-1.438065052E0,3.820020424E0
4.382098959E0,-1.831236005E0,-2.795209885E0,-1.601963997E0,3.705794416E0
4.387110586E0,-1.677430987E0,-2.630949020E0,-1.749312043E0,3.577116169E0
4.392122050E0,-1.547394991E0,-2.464252949E0,-1.841820955E0,3.443730286E0
4.397133678E0,-1.429041982E0,-2.266375065E0,-1.865311980E0,3.264660121E0
4.402145142E0,-1.286378026E0,-2.080388069E0,-1.872424960E0,3.080382797E0
4.407156755E0,-1.145475030E0,-1.875172973E0,-1.855983973E0,2.876293314E0
4.412168229E0,-1.025375962E0,-1.667482972E0,-1.815979958E0,2.670145789E0
4.417179842E0,-9.260560274E-1,-1.481284022E0,-1.733036995E0,2.460731466E0
4.422191306E0,-8.522620201E-1,-1.306977034E0,-1.676668048E0,2.290361382E0
4.427202919E0,-7.922319770E-1,-1.146970987E0,-1.637243032E0,2.150288050E0
4.432214382E0,-7.532010078E-1,-9.869080186E-1,-1.614768028E0,2.036854187E0
4.437226000E0,-6.959720254E-1,-8.477590084E-1,-1.526792049E0,1.879937860E0
4.442237463E0,-6.617940068E-1,-7.315940261E-1,-1.409340024E0,1.720302424E0
4.447249077E0,-6.546609998E-1,-6.095190048E-1,-1.251979947E0,1.538683928E0
4.452260549E0,-6.343209743E-1,-5.196620226E-1,-1.037372947E0,1.322329137E0
4.457272163E0,-6.080949903E-1,-4.429090023E-1,-8.090260029E-1,1.104749281E0
4.462283626E0,-5.345680118E-1,-3.172979951E-1,-5.949029922E-1,8.604362539E-1
4.467295254E0,-4.358119965E-1,-2.195609957E-1,-3.945629895E-1,6.275500616E-1
4.472306717E0,-4.236020148E-1,-2.071509957E-1,-2.261320055E-1,5.229587803E-1
4.477318102E0,-3.772110045E-1,-2.132239938E-1,-7.231699675E-2,4.392975773E-1
4.482329715E0,-3.023349941E-1,-2.213020027E-1,3.965299949E-2,3.767670174E-1
4.487341394E0,-1.860869974E-1,-2.197279930E-1,1.041560024E-1,3.061980313E-1
4.492352857E0,-3.919100016E-2,-2.135660052E-1,1.297419965E-1,2.529414137E-1
4.497364461E0,1.257510036E-1,-2.220290005E-1,1.476279944E-1,2.947952115E-1
4.502375924E0,3.034619987E-1,-2.285089940E-1,1.394679993E-1,4.046688372E-1
4.507387538E0,4.749439955E-1,-2.641809881E-1,1.081740037E-1,5.541344678E-1
4.512399001E0,6.033579707E-1,-2.978729904E-1,6.595800072E-2,6.761062173E-1
4.517410614E0,7.317579985E-1,-3.296239972E-1,1.561599970E-2,8.027238674E-1
4.522422078E0,8.186550140E-1,-3.402209878E-1,-4.734700173E-2,8.877995782E-1
4.527433691E0,9.025660157E-1,-3.512020111E-1,-1.203079969E-1,9.759314932E-1
4.532445141E0,9.351469874E-1,-3.528670073E-1,-1.914270073E-1,1.017673480E0
4.537456754E0,9.575520158E-1,-3.618229926E-1,-2.423010021E-1,1.051918018E0
4.542468218E0,9.702200294E-1,-3.804750144E-1,-2.990219891E-1,1.084205835E0
4.547479840E0,9.758300185E-1,-4.183349907E-1,-3.475559950E-1,1.117158699E0
4.552491304E0,9.002029896E-1,-5.039489865E-1,-3.812650144E-1,1.099860452E0
4.557502688E0,8.267940283E-1,-5.942180157E-1,-3.957830071E-1,1.092395352E0
4.562514375E0,8.504369855E-1,-6.295419931E-1,-4.262639880E-1,1.140730983E0
4.567525990E0,8.961150050E-1,-6.505939960E-1,-4.465740025E-1,1.194036427E0
4.572537454E0,9.908919930E-1,-6.406710148E-1,-4.709379971E-1,1.270475851E0
4.577548838E0,1.029059052E0,-6.571519971E-1,-5.015169978E-1,1.319973704E0
4.582560529E0,1.086678982E0,-6.522719860E-1,-5.543389916E-1,1.383337150E0
4.587572144E0,1.084364057E0,-6.714249849E-1,-6.102759838E-1,1.413893099E0
4.592583608E0,1.068119049E0,-7.263789773E-1,-6.228989959E-1,1.434052956E0
4.597595221E0,9.502649903E-1,-8.248909712E-1,-7.931590080E-1,1.487464244E0
4.602606694E0,8.356339931E-1,-9.343230128E-1,-9.603890181E-1,1.579110740E0
4.607618307E0,7.021830082E-1,-1.022161007E0,-1.135164976E0,1.681211951E0
4.612629747E0,4.710760117E-1,-1.093176961E0,-1.262578011E0,1.735238228E0
4.617641360E0,1.186050028E-1,-1.132977009E0,-1.309316039E0,1.735515065E0
4.622652823E0,-3.168750107E-1,-1.146357059E0,-1.287279010E0,1.752607066E0
4.627664222E0,-8.782939911E-1,-1.205124021E0,-1.220159054E0,1.926788093E0
4.632675912E0,-1.446226954E0,-1.259067059E0,-1.114886045E0,2.218060675E0
4.637687285E0,-1.927585959E0,-1.315420032E0,-9.734299779E-1,2.528533846E0
4.642698975E0,-2.279347897E0,-1.331166029E0,-8.432189822E-1,2.771001278E0
4.647710577E0,-2.534936905E0,-1.382905960E0,-7.503749728E-1,2.983520841E0
4.652721963E0,-2.647435904E0,-1.393887997E0,-6.872239709E-1,3.069872538E0
4.657733425E0,-2.654441118E0,-1.382225990E0,-6.527410150E-1,3.063115599E0
4.662745028E0,-2.557969093E0,-1.283648014E0,-6.484439969E-1,2.934525127E0
4.667756492E0,-2.329670906E0,-1.103214979E0,-6.182090044E-1,2.650779545E0
4.672768105E0,-2.004182100E0,-8.604509830E-1,-5.725539923E-1,2.254981122E0
4.677779569E0,-1.612272024E0,-6.058480144E-1,-4.870229959E-1,1.789878291E0
4.682791254E0,-1.176579952E0,-3.515070081E-1,-3.587650061E-1,1.279300547E0
4.687802872E0,-7.141720057E-1,-1.284710020E-1,-1.592119932E-1,7.428962988E-1
4.692814246E0,-2.532280087E-1,7.044199854E-2,6.057399884E-2,2.697326619E-1
4.697825708E0,1.859299988E-1,2.357970029E-1,2.953110039E-1,4.211636025E-1
4.702837321E0,6.115459800E-1,3.487269878E-1,5.703750253E-1,9.060500357E-1
4.707848766E0,9.758129716E-1,4.333559871E-1,8.151810169E-1,1.343327383E0
4.712860379E0,1.257787943E0,4.780089855E-1,1.040245056E0,1.700774199E0
4.717871819E0,1.464859009E0,5.163599849E-1,1.232686996E0,1.982916231E0
4.722883432E0,1.578590035E0,5.531719923E-1,1.352116942E0,2.150852384E0
4.727894896E0,1.606608987E0,6.220440269E-1,1.452314019E0,2.253296966E0
4.732906523E0,1.572082996E0,7.096719742E-1,1.521667004E0,2.300119503E0
4.737917987E0,1.529075027E0,8.691059947E-1,1.493553996E0,2.307405297E0
4.742929600E0,1.463315964E0,1.117069960E0,1.356210947E0,2.286579768E0
4.747941063E0,1.389464974E0,1.405676007E0,1.102717042E0,2.263299102E0
4.752952668E0,1.340989947E0,1.746834993E0,7.286069989E-1,2.319602270E0
4.757964131E0,1.317792058E0,2.109376907E0,2.054640055E-1,2.495648674E0
4.762975745E0,1.331644058E0,2.469283104E0,-4.351949990E-1,2.839019132E0
4.767987212E0,1.398944020E0,2.826469898E0,-1.171540022E0,3.364295243E0
4.772998826E0,1.560008049E0,3.166551113E0,-1.953320980E0,4.034369085E0
4.778010294E0,1.628105998E0,3.398638010E0,-2.699491024E0,4.635592870E0
4.783021908E0,1.646070004E0,3.532371998E0,-3.348355055E0,5.137964574E0
4.788033361E0,1.661481023E0,3.584606886E0,-3.850359917E0,5.516810419E0
4.793044975E0,1.621634960E0,3.543567896E0,-4.220983982E0,5.744848053E0
4.798056667E0,1.593305945E0,3.430911064E0,-4.415558815E0,5.814373071E0
4.803068078E0,1.528609037E0,3.237170935E0,-4.492081165E0,5.744102580E0
4.808079539E0,1.499515057E0,3.012703896E0,-4.446279049E0,5.576228793E0
4.813091139E0,1.510849953E0,2.764676094E0,-4.249312878E0,5.289873478E0
4.818102602E0,1.459964991E0,2.390186071E0,-3.946451902E0,4.839315018E0
4.823114216E0,1.301643014E0,1.865242004E0,-3.496517897E0,4.171215611E0
4.828125679E0,1.119688034E0,1.287783980E0,-2.929681063E0,3.390445399E0
4.833137292E0,1.004065037E0,7.045009732E-1,-2.310476065E0,2.615868472E0
4.838148770E0,9.730129838E-1,1.453640014E-1,-1.806663990E0,2.057163030E0
4.843160383E0,8.898209929E-1,-4.117180109E-1,-1.434111953E0,1.737230616E0
4.848171770E0,9.704599977E-1,-8.708770275E-1,-1.257104993E0,1.811223997E0
4.853183240E0,9.995120168E-1,-1.265826941E0,-1.139266014E0,1.974656721E0
4.858194855E0,9.146689773E-1,-1.594197989E0,-1.006332040E0,2.095421375E0
4.863206300E0,7.202230096E-1,-1.829707026E0,-7.961210012E-1,2.121404637E0
4.868217990E0,5.807530284E-1,-1.879098058E0,-5.587450266E-1,2.044622116E0
4.873229607E0,4.479030073E-1,-1.778347015E0,-3.275020123E-1,1.862899025E0
4.878241011E0,1.752800047E-1,-1.589740038E0,-1.213160008E-1,1.603968217E0
4.883252701E0,-1.875160038E-1,-1.263115048E0,-4.531800002E-2,1.277761949E0
4.888264165E0,-5.500900149E-1,-8.442239761E-1,-1.323820055E-1,1.016286447E0
4.893275578E0,-8.234199882E-1,-3.432970047E-1,-3.637999892E-1,9.634436893E-1
4.898287192E0,-1.094728947E0,1.560579985E-1,-6.277080178E-1,1.271535655E0
4.903298670E0,-1.290218949E0,6.585749984E-1,-9.364320040E-1,1.724903146E0
4.908310284E0,-1.379976988E0,1.137393951E0,-1.290585041E0,2.205359661E0
4.913321771E0,-1.380962968E0,1.527367949E0,-1.650853992E0,2.639172308E0
4.918333385E0,-1.311575055E0,1.804798007E0,-1.996610999E0,2.993990724E0
4.923344848E0,-1.212031007E0,1.945930958E0,-2.290447950E0,3.240650902E0
4.928356447E0,-1.108376980E0,1.927014947E0,-2.502327919E0,3.347167631E0
4.933367910E0,-9.336040020E-1,1.834267974E0,-2.573162079E0,3.295044539E0
4.938379515E0,-6.637399793E-1,1.706050038E0,-2.484448910E0,3.086040162E0
4.943390978E0,-3.583999872E-1,1.551951051E0,-2.300925970E0,2.798439375E0
4.948402591E0,-7.017199695E-2,1.379104018E0,-2.098957062E0,2.512463482E0
4.953413973E0,1.937240064E-1,1.192273021E0,-1.878499985E0,2.233339683E0
4.958425663E0,4.050129950E-1,9.528939724E-1,-1.598067045E0,1.904169302E0
4.963437127E0,5.683400035E-1,6.835449934E-1,-1.290356040E0,1.566927831E0
4.968448740E0,7.034940124E-1,3.841449916E-1,-9.863219857E-1,1.270945420E0
4.973460204E0,8.088520169E-1,6.898500025E-2,-6.926749945E-1,1.067145334E0
4.978471812E0,9.084320068E-1,-2.501789927E-1,-4.485000074E-1,1.043547074E0
4.983483199E0,9.975289702E-1,-5.806390047E-1,-2.360360026E-1,1.178099612E0
4.988494659E0,1.071645975E0,-9.297260046E-1,-8.454199880E-2,1.421253985E0
4.993506274E0,1.234753013E0,-1.292541981E0,4.890299961E-2,1.788203366E0
4.998517737E0,1.357094049E0,-1.633903980E0,1.424899995E-1,2.128767220E0
5.003529342E0,1.484210014E0,-1.963387966E0,2.251929939E-1,2.471534656E0
5.008541034E0,1.577906966E0,-2.216386080E0,2.658939958E-1,2.733652733E0
5.013552425E0,1.686157942E0,-2.419198990E0,2.741129994E-1,2.961552008E0
5.018563886E0,1.777969003E0,-2.490434885E0,2.688289881E-1,3.071759873E0
5.023575500E0,1.824918032E0,-2.501841068E0,2.211560011E-1,3.104584438E0
5.028586968E0,1.827134967E0,-2.472532988E0,8.781599998E-2,3.075638667E0
5.033598582E0,1.775210977E0,-2.443125010E0,-9.104699641E-2,3.021344631E0
5.038610045E0,1.642748952E0,-2.408814907E0,-1.122900024E-1,2.917811238E0
5.043621430E0,1.508571982E0,-2.379182100E0,-1.243479997E-1,2.819886402E0
5.048633043E0,1.449349046E0,-2.296783924E0,-2.301989943E-1,2.725586291E0
5.053644507E0,1.393252015E0,-2.180762053E0,-2.863610089E-1,2.603627649E0
5.058656105E0,1.347638965E0,-2.047847033E0,-3.144930005E-1,2.471581294E0
5.063667798E0,1.298207045E0,-1.917173028E0,-2.955169976E-1,2.334143150E0
5.068679266E0,1.257063985E0,-1.771989942E0,-2.819960117E-1,2.190817191E0
5.073690879E0,1.209800959E0,-1.652997971E0,-2.473700047E-1,2.063301376E0
5.078702343E0,1.158856988E0,-1.548235059E0,-1.796250045E-1,1.942227190E0
5.083713723E0,1.118450999E0,-1.448163986E0,-1.527789980E-1,1.836151680E0
5.088725336E0,1.090834022E0,-1.343222022E0,-1.379719973E-1,1.735857291E0
5.093736800E0,1.061491966E0,-1.257362008E0,-1.591019928E-1,1.653190206E0
5.098748398E0,1.039881945E0,-1.183405995E0,-2.090460062E-1,1.589183577E0
5.103759862E0,1.025913000E0,-1.114174008E0,-2.615750134E-1,1.536978429E0
5.108771475E0,1.002714038E0,-1.056841969E0,-2.953310013E-1,1.486462509E0
5.113782944E0,9.822599888E-1,-9.874699712E-1,-3.200539947E-1,1.429113778E0
5.118794557E0,9.098190069E-1,-9.185929894E-1,-3.271520138E-1,1.333646185E0
5.123806010E0,8.352860212E-1,-8.684909940E-1,-3.115249872E-1,1.244599197E0
5.128817395E0,7.378290296E-1,-8.250749707E-1,-2.623549998E-1,1.137528255E0
5.133829085E0,6.342980266E-1,-8.170650005E-1,-2.014250010E-1,1.053803223E0
5.138840487E0,5.201560259E-1,-8.157370090E-1,-1.336389929E-1,9.766516982E-1
5.143852100E0,4.233059883E-1,-8.188639879E-1,-9.840200096E-2,9.270432267E-1
5.148863559E0,3.246369958E-1,-8.264039755E-1,-4.134099931E-2,8.888429490E-1
5.153875172E0,2.379789948E-1,-8.336830139E-1,-6.978999823E-3,8.670121545E-1
5.158886636E0,1.581539959E-1,-8.192480206E-1,7.856000215E-3,8.344110033E-1
5.163898268E0,8.497299999E-2,-7.951250076E-1,1.455000020E-3,7.996538661E-1
5.168909732E0,3.445800021E-2,-7.709069848E-1,4.470999818E-3,7.716896545E-1
5.173921345E0,8.174999617E-3,-7.489299774E-1,5.357100070E-2,7.508880035E-1
5.178932819E0,-2.694799937E-2,-7.339389920E-1,1.031859964E-1,7.416468085E-1
5.183944203E0,-7.056300342E-2,-7.162470222E-1,1.903959960E-1,7.444726788E-1
5.188955812E0,-8.527400345E-2,-6.767920256E-1,2.676300108E-1,7.327652586E-1
5.193967275E0,-5.799400061E-2,-6.252689958E-1,3.306370080E-1,7.096798237E-1
5.198978975E0,1.480800007E-2,-5.810310245E-1,3.521580100E-1,6.795819246E-1
5.203990591E0,6.001599878E-2,-5.703390241E-1,3.564319909E-1,6.752275813E-1
5.209001977E0,1.249869987E-1,-5.717179775E-1,3.485769928E-1,6.811674651E-1
5.214013662E0,2.067099959E-1,-5.494089723E-1,3.104920089E-1,6.640666599E-1
5.219025126E0,3.000209928E-1,-5.320810080E-1,2.939049900E-1,6.778664605E-1
5.224036506E0,4.067490101E-1,-4.791499972E-1,2.588289976E-1,6.797219483E-1
5.229048120E0,5.311809778E-1,-4.168800116E-1,2.616110146E-1,7.241425952E-1
5.234059587E0,6.542270184E-1,-3.596130013E-1,2.592140138E-1,7.902698319E-1
5.239071201E0,7.388150096E-1,-3.024800122E-1,2.519269884E-1,8.371433471E-1
5.244082664E0,8.116009831E-1,-2.789359987E-1,2.444799989E-1,8.923406956E-1
5.249094278E0,8.729739785E-1,-2.530060112E-1,2.578440011E-1,9.447640646E-1
5.254105741E0,9.116340280E-1,-2.677420080E-1,2.542679906E-1,9.835723638E-1
5.259117141E0,9.304170012E-1,-3.087739944E-1,2.435429990E-1,1.010114037E0
5.264128754E0,9.461590052E-1,-3.472740054E-1,2.676210105E-1,1.042802524E0
5.269140218E0,9.634339809E-1,-3.952339888E-1,2.813380063E-1,1.078687172E0
5.274151831E0,9.660000205E-1,-4.024850130E-1,2.667729855E-1,1.079962060E0
5.279163295E0,9.311429858E-1,-4.168789983E-1,2.364950031E-1,1.047256055E0
5.284174898E0,8.923940063E-1,-4.192619920E-1,2.142300010E-1,1.008980760E0
5.289186362E0,8.335279822E-1,-4.096460044E-1,1.882870048E-1,9.476448398E-1
5.294197975E0,7.759000063E-1,-3.760589957E-1,1.750860065E-1,8.798274250E-1
5.299209438E0,7.100830078E-1,-3.137120008E-1,1.674280018E-1,7.941443403E-1
5.304221052E0,6.525670290E-1,-2.273949981E-1,1.746760011E-1,7.127860253E-1
5.309232515E0,5.798180103E-1,-1.339010000E-1,1.662150025E-1,6.178558327E-1
5.314244110E0,5.224869847E-1,-1.411600038E-2,1.612100005E-1,5.469740167E-1
5.319255573E0,4.569729865E-1,1.126829982E-1,1.202559993E-1,4.857810966E-1
5.324267187E0,4.230639935E-1,2.320719957E-1,6.278300285E-2,4.866027735E-1
5.329278650E0,3.804259896E-1,3.392210007E-1,-1.792100072E-2,5.100156695E-1
5.334290035E0,3.737370074E-1,4.339649975E-1,-1.587830037E-1,5.943206307E-1
5.339301633E0,3.556219935E-1,4.901779890E-1,-2.562420070E-1,6.575723758E-1
5.344313097E0,3.568949997E-1,5.391389728E-1,-3.024550080E-1,7.138094316E-1
5.349324715E0,3.818080127E-1,6.000149846E-1,-3.551410139E-1,7.949342615E-1
5.354336179E0,3.785339892E-1,7.016119957E-1,-3.815450072E-1,8.838121780E-1
5.359347792E0,3.710660040E-1,8.871139884E-1,-3.731899858E-1,1.031470782E0
5.364359247E0,3.893269897E-1,1.208286047E0,-3.068119884E-1,1.306010824E0
5.369370860E0,4.699490070E-1,1.608482957E0,-2.098949999E-1,1.688823674E0
5.374382247E0,5.459219813E-1,2.099605083E0,-1.295589954E-1,2.173282736E0
5.379393706E0,5.933619738E-1,2.602613926E0,-1.130359992E-1,2.671788692E0
5.384405322E0,5.069310069E-1,3.062419891E0,-1.382270008E-1,3.107169345E0
5.389416785E0,3.291749954E-1,3.443078041E0,-2.598530054E-1,3.468525070E0
5.394428476E0,1.025710031E-1,3.720619917E0,-4.465529919E-1,3.748725510E0
5.399440093E0,-3.360930085E-1,3.682117939E0,-9.309239984E-1,3.812816612E0
5.404451478E0,-8.370820284E-1,3.418612003E0,-1.403215051E0,3.789013965E0
5.409462939E0,-9.481920004E-1,3.262871027E0,-1.537037015E0,3.729326775E0
5.414474557E0,-9.937509894E-1,3.054723024E0,-1.611215949E0,3.593729347E0
5.419486020E0,-1.054075956E0,2.825429916E0,-1.646087050E0,3.435656111E0
5.424497634E0,-1.157034993E0,2.563112974E0,-1.563277006E0,3.217469983E0
5.429509097E0,-1.174944997E0,2.346795082E0,-1.341518044E0,2.947475796E0
5.434520697E0,-1.145321012E0,2.111841917E0,-1.135825992E0,2.657392930E0
5.439532160E0,-1.079620957E0,1.798346043E0,-1.028942943E0,2.336311940E0
5.444543773E0,-1.025683045E0,1.473206043E0,-1.093924999E0,2.102149771E0
5.449555151E0,-9.887970090E-1,1.098016024E0,-1.312952995E0,1.976664939E0
5.454566611E0,-8.962479830E-1,7.158049941E-1,-1.508525968E0,1.895069347E0
5.459578230E0,-8.232960105E-1,3.353799880E-1,-1.661774993E0,1.884619904E0
5.464589694E0,-7.840960026E-1,-2.415700071E-2,-1.807638049E0,1.970519073E0
5.469601307E0,-8.199790120E-1,-2.765470147E-1,-1.926946044E0,2.112336358E0
5.474612771E0,-9.382020235E-1,-4.359860122E-1,-2.038548946E0,2.286042136E0
5.479624151E0,-1.050758958E0,-4.929249883E-1,-2.203037977E0,2.490069429E0
5.484635841E0,-1.157894015E0,-4.807620049E-1,-2.412134886E0,2.718500573E0
5.489647228E0,-1.299015999E0,-4.374090135E-1,-2.613965988E0,2.951539835E0
5.494658841E0,-1.521870971E0,-3.647269905E-1,-2.784077883E0,3.193776242E0
5.499670318E0,-1.759243011E0,-2.693200111E-1,-2.835803032E0,3.348021517E0
5.504681931E0,-1.936324954E0,-1.866730005E-1,-2.693865061E0,3.322816592E0
5.509693395E0,-2.094558954E0,-8.067499846E-2,-2.366416931E0,3.161267904E0
5.514705023E0,-2.243809938E0,-8.779999800E-3,-1.944954991E0,2.969446084E0
5.519716410E0,-3.030764103E0,-1.819040030E-1,-7.949969769E-1,3.138572973E0
5.524728114E0,-3.516172886E0,-2.591640055E-1,1.632999978E-3,3.525711334E0
5.529739578E0,-2.810834885E0,6.399600208E-2,-5.482500046E-2,2.812097797E0
5.534751191E0,-2.171456099E0,4.666939974E-1,2.106799930E-2,2.221141314E0
5.539762578E0,-1.590394020E0,8.701540232E-1,-1.659999980E-4,1.812876496E0
5.544774037E0,-9.338340163E-1,1.225708961E0,-3.075899929E-2,1.541218526E0
5.549785653E0,1.029189974E-1,1.555004001E0,-2.390870005E-1,1.576639577E0
5.554797116E0,1.157297015E0,1.712196946E0,-4.391199946E-1,2.112766228E0
5.559808735E0,2.163222075E0,1.778740048E0,-4.850240052E-1,2.842304380E0
5.564820198E0,2.709927082E0,1.615916014E0,-4.024940133E-1,3.180706020E0
5.569831812E0,2.801937103E0,1.309821963E0,-3.560659885E-1,3.113401371E0
5.574843198E0,2.210972071E0,8.631430268E-1,-1.255259961E-1,2.376798300E0
5.579854889E0,1.328012943E0,3.523190022E-1,1.255709976E-1,1.379679358E0
5.584866265E0,6.876950264E-1,2.042800002E-2,1.998690069E-1,7.164421627E-1
5.589877727E0,2.554169893E-1,-1.309150010E-1,1.382980049E-1,3.185952198E-1
5.594889326E0,-8.827500045E-2,-1.737920046E-1,2.628600039E-2,1.966903413E-1
5.599900790E0,-3.828989863E-1,-1.586119980E-1,-1.418589950E-1,4.380563595E-1
5.604912480E0,-6.319469810E-1,-1.141730025E-1,-3.371280134E-1,7.252914991E-1
5.609923881E0,-7.787489891E-1,-3.113700077E-2,-5.151259899E-1,9.342238952E-1
5.614935494E0,-7.514119744E-1,2.545900084E-2,-7.303150296E-1,1.048154644E0
5.619946886E0,-8.073030114E-1,-7.322700322E-2,-9.609079957E-1,1.257157318E0
5.624958345E0,-7.488059998E-1,-1.814759970E-1,-1.118453979E0,1.358154361E0
5.629970038E0,-5.933520198E-1,-2.827650011E-1,-1.119315982E0,1.298033487E0
5.634981419E0,-3.135220110E-1,-4.061880112E-1,-9.590449929E-1,1.087681962E0
5.639993033E0,-1.426669955E-1,-5.322629809E-1,-7.142329812E-1,9.021011606E-1
5.645004730E0,-9.138700366E-2,-7.132740021E-1,-4.940389991E-1,8.724596948E-1
5.650016117E0,-5.175599828E-2,-9.348660111E-1,-3.370960057E-1,9.951315788E-1
5.655027578E0,-3.864900023E-2,-1.238247991E0,-2.394170016E-1,1.261773487E0
5.660039192E0,-4.711800069E-2,-1.596652031E0,-1.469050050E-1,1.604088182E0
5.665050578E0,1.365199964E-2,-1.868903041E0,-5.001800135E-2,1.869622088E0
5.670062269E0,7.660900056E-2,-2.093297958E0,8.501300216E-2,2.096423739E0
5.675073670E0,1.201609969E-1,-2.281810045E0,2.393230051E-1,2.297470620E0
5.680085132E0,1.897229999E-1,-2.453597069E0,3.891339898E-1,2.491497272E0
5.685096745E0,1.728319973E-1,-2.596693993E0,5.370810032E-1,2.657281806E0
5.690108209E0,1.483349949E-1,-2.727874994E0,6.165159941E-1,2.800606582E0
5.695119822E0,1.016379967E-1,-2.787348986E0,6.800760031E-1,2.870914144E0
5.700131267E0,5.654399842E-2,-2.767956018E0,7.469810247E-1,2.867535247E0
5.705142651E0,3.201200068E-2,-2.693650007E0,7.599040270E-1,2.798969321E0
5.710154265E0,5.686900020E-2,-2.588354111E0,7.619370222E-1,2.698769926E0
5.715165737E0,8.575899899E-2,-2.475977898E0,7.433419824E-1,2.586576590E0
5.720177351E0,7.811000198E-2,-2.366079092E0,7.373999953E-1,2.479554435E0
5.725188814E0,4.599799961E-2,-2.263434887E0,7.177579999E-1,2.374958915E0
5.730200428E0,3.996500000E-2,-2.160821915E0,7.368599772E-1,2.283355245E0
5.735211814E0,2.184399962E-2,-2.058228970E0,7.419480085E-1,2.187983204E0
5.740223274E0,2.531999908E-2,-1.972381949E0,7.304750085E-1,2.103455584E0
5.745234937E0,2.670099959E-2,-1.874534965E0,7.286450267E-1,2.011347273E0
5.750246552E0,-7.393999957E-3,-1.747921944E0,7.243750095E-1,1.892090100E0
5.755258031E0,-4.830000177E-2,-1.609297991E0,7.463080287E-1,1.774584060E0
5.760269416E0,-4.330199957E-2,-1.413193941E0,7.801219821E-1,1.614801067E0
5.765281029E0,-2.822099999E-2,-1.171560049E0,8.209620118E-1,1.430848699E0
5.770292488E0,-3.890699893E-2,-9.738919735E-1,8.182190061E-1,1.272580714E0
5.775304101E0,-9.793300182E-2,-8.429470062E-1,7.905399799E-1,1.159786182E0
5.780315564E0,-1.436630040E-1,-7.428900003E-1,7.615249753E-1,1.073519864E0
5.785326963E0,-8.173000067E-2,-6.333860159E-1,7.961570024E-1,1.020648623E0
5.790338577E0,3.287000116E-3,-4.977529943E-1,8.438799977E-1,9.797460376E-1
5.795350036E0,5.759700015E-2,-3.931590021E-1,9.670130014E-1,1.045469062E0
5.800361726E0,1.075949967E-1,-3.172009885E-1,1.075391054E0,1.126347668E0
5.805373127E0,1.557340026E-1,-2.914189994E-1,1.155400038E0,1.201718503E0
5.810384740E0,1.972910017E-1,-2.847059965E-1,1.212506056E0,1.261012363E0
5.815396204E0,2.392040044E-1,-2.875890136E-1,1.224138021E0,1.280015583E0
5.820407832E0,2.348929942E-1,-3.096329868E-1,1.168215990E0,1.231168512E0
5.825419219E0,2.156579942E-1,-3.390009999E-1,1.041748047E0,1.116543345E0
5.830430909E0,2.166129947E-1,-3.639239967E-1,8.766840100E-1,9.736204180E-1
5.835442349E0,2.369969934E-1,-3.702760041E-1,6.576110125E-1,7.910272674E-1
5.840453733E0,2.112729996E-1,-3.793939948E-1,4.552839994E-1,6.291737469E-1
5.845465366E0,1.757660061E-1,-3.960520029E-1,2.409850061E-1,4.958070704E-1
5.850476829E0,1.657489985E-1,-4.296309948E-1,1.168270037E-1,4.750832253E-1
5.855488447E0,1.019970030E-1,-4.819709957E-1,1.101050004E-1,5.047995051E-1
5.860499910E0,2.836400084E-2,-5.695750117E-1,1.638959944E-1,5.933650710E-1
5.865511295E0,-3.113999963E-2,-6.949459910E-1,1.768590063E-1,7.177734588E-1
5.870522888E0,-1.087469980E-1,-8.723580241E-1,1.806229949E-1,8.974737312E-1
5.875534352E0,-9.747120142E-1,-1.845536947E0,4.344680011E-1,2.131861294E0
5.880545965E0,-7.955970168E-1,-1.272999048E0,-4.017280042E-1,1.553990534E0
5.885557429E0,4.248380065E-1,-1.111897945E0,2.883160114E-1,1.224716496E0
5.890569042E0,3.919830024E-1,-1.182564020E0,3.154689968E-1,1.285157198E0
5.895580429E0,-6.374099851E-2,-1.420428038E0,3.572719991E-1,1.466056618E0
5.900591893E0,-3.065980077E-1,-1.574344993E0,3.972229958E-1,1.652377258E0
5.905603509E0,-2.865029871E-1,-1.639557004E0,4.114609957E-1,1.714506134E0
5.910614972E0,-3.002110124E-1,-1.733347058E0,4.360789955E-1,1.812397188E0
5.915626586E0,-3.359900117E-1,-1.750457048E0,4.495440125E-1,1.838227131E0
5.920638049E0,-2.744629979E-1,-1.638278008E0,4.495460093E-1,1.720865010E0
5.925649663E0,-2.257110029E-1,-1.420745969E0,4.073779881E-1,1.495132566E0
5.930661126E0,-2.185370028E-1,-1.179224968E0,3.373219967E-1,1.245839507E0
5.935672740E0,-2.582080066E-1,-8.872230053E-1,2.439049929E-1,9.556807424E-1
5.940684126E0,-3.195900023E-1,-6.122260094E-1,1.693550050E-1,7.110833804E-1
5.945695595E0,-3.695710003E-1,-3.614520133E-1,7.769700140E-2,5.227495636E-1
5.950707210E0,-3.946749866E-1,-9.921099991E-2,-5.180799961E-2,4.102380240E-1
5.955718689E0,-3.932810128E-1,1.604640037E-1,-9.554900229E-2,4.353714085E-1
5.960730302E0,-3.774679899E-1,3.865700066E-1,-1.166850030E-1,5.527511586E-1
5.965741756E0,-4.264189899E-1,5.675730109E-1,-9.280899912E-2,7.159509676E-1
5.970753140E0,-4.799570143E-1,6.868929863E-1,-4.865900055E-2,8.393738193E-1
5.975764769E0,-4.846940041E-1,8.092520237E-1,7.114200294E-2,9.459800738E-1
5.980776232E0,-3.561539948E-1,9.474189878E-1,2.736980021E-1,1.048503220E0
5.985787860E0,-1.977010071E-1,1.083364964E0,5.649909973E-1,1.237731861E0
5.990799323E0,-7.413099706E-2,1.233734012E0,8.164539933E-1,1.481280574E0
5.995810708E0,7.050000131E-3,1.446256042E0,9.761310220E-1,1.744860456E0
6.000822398E0,8.608999848E-2,1.689661980E0,9.849029779E-1,1.957652413E0
6.005833785E0,2.342779934E-1,1.954231024E0,7.715730071E-1,2.114055339E0
6.010845384E0,3.914360106E-1,2.215888023E0,2.984780073E-1,2.269905505E0
6.015856848E0,5.380150080E-1,2.419502020E0,-4.054349959E-1,2.511538912E0
6.020868461E0,7.190060019E-1,2.545947075E0,-1.178061962E0,2.895970671E0
6.025879920E0,8.766360283E-1,2.588103056E0,-1.864647985E0,3.308123374E0
6.030891533E0,1.051203012E0,2.629831076E0,-2.310797930E0,3.655246412E0
6.035902997E0,1.247400999E0,2.654620886E0,-2.539918900E0,3.879975427E0
6.040914610E0,1.458250046E0,2.691401005E0,-2.596456051E0,4.013940282E0
6.045926074E0,1.676659942E0,2.709264994E0,-2.498575926E0,4.048973576E0
6.050937448E0,1.833629012E0,2.662933111E0,-2.304656029E0,3.970497138E0
6.055949062E0,1.859941959E0,2.538098097E0,-2.055530071E0,3.758527626E0
6.060960448E0,1.854029059E0,2.382627010E0,-1.738878965E0,3.483968324E0
6.065972139E0,1.799672008E0,2.237149000E0,-1.296342969E0,3.150263493E0
6.070983602E0,1.692839026E0,2.056113958E0,-8.580769897E-1,2.798143081E0
6.075994987E0,1.642223954E0,1.906445980E0,-5.183140039E-1,2.569063097E0
6.081006600E0,1.567409992E0,1.699499965E0,-3.304010034E-1,2.335431231E0
6.086018040E0,1.509636998E0,1.420771956E0,-2.881619930E-1,2.092996453E0
6.091029653E0,1.516772985E0,1.109541059E0,-3.443140090E-1,1.910558501E0
6.096041117E0,1.605648994E0,8.548280001E-1,-4.651390016E-1,1.877549971E0
6.101052496E0,1.683017969E0,6.566579938E-1,-5.693070292E-1,1.894164644E0
6.106064110E0,1.272055030E0,-4.496499896E-2,-5.813660026E-1,1.399332798E0
6.111075564E0,1.020781040E0,3.940660059E-1,-1.345437050E0,1.734209562E0
6.116087178E0,1.908653021E0,6.703540087E-1,-1.106721044E0,2.305897292E0
6.121098641E0,1.687896013E0,5.019890070E-1,-1.204926014E0,2.133736772E0
6.126110264E0,1.388674021E0,2.863880098E-1,-1.305315018E0,1.927246980E0
6.131121727E0,1.205001950E0,1.095379964E-1,-1.331855059E0,1.799407172E0
6.136133112E0,1.118603945E0,-3.365699947E-2,-1.347857952E0,1.751892873E0
6.141144802E0,1.034978032E0,-1.478320062E-1,-1.314960003E0,1.679926676E0
6.146156189E0,1.072029948E0,-2.139569968E-1,-1.202980042E0,1.625480479E0
6.151167797E0,1.128818035E0,-2.509759963E-1,-1.031185985E0,1.549375242E0
6.156179184E0,1.054662943E0,-3.277930021E-1,-8.644790053E-1,1.402528476E0
6.161190879E0,1.053580046E0,-4.800220132E-1,-5.406879783E-1,1.277808881E0
6.166202343E0,9.806759953E-1,-5.833719969E-1,-3.522450030E-1,1.194204688E0
6.171213717E0,8.950840235E-1,-6.252269745E-1,1.823399961E-2,1.091978323E0
6.176225331E0,8.099939823E-1,-6.583669782E-1,3.408400118E-1,1.098047924E0
6.181236794E0,7.170259953E-1,-7.813060284E-1,5.084630251E-1,1.176052735E0
6.186248408E0,6.818220019E-1,-9.035130143E-1,5.981410146E-1,1.280230324E0
6.191259794E0,6.680319905E-1,-9.245910048E-1,6.967239976E-1,1.336622458E0
6.196271245E0,6.636589766E-1,-9.046180248E-1,7.373350263E-1,1.342549794E0
6.201282860E0,6.710019708E-1,-8.462929726E-1,7.082200050E-1,1.291522751E0
6.206294328E0,5.995380282E-1,-7.829350233E-1,6.881700158E-1,1.202502004E0
6.211305941E0,4.818899930E-1,-7.097330093E-1,6.606900096E-1,1.082797395E0
6.216317328E0,3.724780083E-1,-6.173629761E-1,5.842639804E-1,9.280308775E-1
6.221328999E0,2.845039964E-1,-5.156520009E-1,4.649130106E-1,7.503223423E-1
6.226340386E0,1.937540025E-1,-4.285910130E-1,3.268139958E-1,5.727462420E-1
6.231351847E0,1.043990031E-1,-3.728269935E-1,2.164629996E-1,4.435711319E-1
6.236363452E0,9.939800203E-2,-3.292829990E-1,1.398350000E-1,3.712964900E-1
6.241374915E0,2.081830055E-1,-2.862649858E-1,6.099199876E-2,3.591765997E-1
6.246386295E0,3.622260094E-1,-3.275749981E-1,-1.097199973E-2,4.885012242E-1
6.251397908E0,4.718370140E-1,-4.362399876E-1,-5.333000049E-2,6.448097266E-1
6.256409615E0,4.129279852E-1,-5.497400165E-1,-1.111060008E-1,6.964683410E-1
6.261421001E0,3.061310053E-1,-6.318050027E-1,-7.703699917E-2,7.062778866E-1
6.266432468E0,2.730430067E-1,-6.802319884E-1,-3.725900128E-2,7.339320641E-1
6.271444081E0,3.110769987E-1,-7.142990232E-1,1.030199975E-2,7.791650177E-1
6.276455545E0,1.855631948E0,-9.292780161E-1,-1.649910063E-1,2.081862048E0
6.281467167E0,2.413224936E0,-7.404729724E-1,1.005202055E0,2.717054652E0
6.286478554E0,-4.857070148E-1,-1.252606034E0,-5.184069872E-1,1.440027425E0
6.291490018E0,-8.644449711E-1,-1.329414010E0,-4.318960011E-1,1.643514793E0
6.296501634E0,-1.859409958E-1,-8.247810006E-1,-1.777569950E-1,8.639648732E-1
6.301513112E0,1.046949998E-1,-7.705339789E-1,-1.426379979E-1,7.905879167E-1
6.306524497E0,1.293980032E-1,-8.764100075E-1,-6.280799955E-2,8.881346684E-1
6.311536105E0,2.116580009E-1,-8.647680283E-1,7.463700324E-2,8.934167753E-1
6.316547569E0,2.922680080E-1,-7.985619903E-1,6.291000172E-3,8.503889801E-1
6.321559182E0,4.041190147E-1,-8.310329914E-1,-1.044289991E-1,9.299642072E-1
6.326570545E0,4.885309935E-1,-8.636710048E-1,-1.430750042E-1,1.002527103E0
6.331582004E0,5.166509748E-1,-8.554080129E-1,-1.168420017E-1,1.006132770E0
6.336593620E0,5.135989785E-1,-8.371239901E-1,-4.638899863E-2,9.832153501E-1
6.341605102E0,5.406939983E-1,-8.279780149E-1,2.983699925E-2,9.893370708E-1
6.346616716E0,5.995050073E-1,-8.494309783E-1,1.349229962E-1,1.048400427E0
6.351628174E0,5.501360297E-1,-9.087150097E-1,1.870229989E-1,1.078605684E0
6.356639788E0,5.395320058E-1,-8.838340044E-1,2.530139983E-1,1.065961264E0
6.361651251E0,5.412459970E-1,-8.109419942E-1,2.801559865E-1,1.014426697E0
6.366662636E0,4.690760076E-1,-7.477350235E-1,2.210700065E-1,9.099515998E-1
6.371674249E0,4.179300070E-1,-6.775370240E-1,1.525350064E-1,8.105484796E-1
6.376685694E0,3.547210097E-1,-6.003029943E-1,1.027960032E-1,7.048103986E-1
6.381697307E0,2.680419981E-1,-5.304139853E-1,4.573100060E-2,5.960510322E-1
6.386708771E0,2.418940067E-1,-4.631519914E-1,-1.388200000E-2,5.226999020E-1
6.391720155E0,2.095859945E-1,-3.959519863E-1,-3.198299929E-2,4.491404867E-1
6.396731769E0,1.760099977E-1,-3.647510111E-1,-6.326799840E-2,4.099093303E-1
6.401743470E0,1.111010015E-1,-3.717330098E-1,-5.423400179E-2,3.917527155E-1
6.406754857E0,3.201000020E-2,-3.835200071E-1,-7.807999849E-2,3.926941840E-1
6.411766265E0,-3.298100084E-2,-3.784250021E-1,-6.431999803E-2,3.852665191E-1
6.416777725E0,-7.030600309E-2,-3.901329935E-1,-9.295299649E-2,4.071694318E-1
6.421789360E0,-1.202739999E-1,-4.064959884E-1,-7.930999994E-2,4.312712600E-1
6.426800824E0,-1.732729971E-1,-4.107460082E-1,-6.174699962E-2,4.500538931E-1
6.431812446E0,-2.364030033E-1,-3.932850063E-1,-3.570299968E-2,4.602544735E-1
6.436823833E0,-2.654649913E-1,-3.757320046E-1,-2.462599985E-2,4.607088460E-1
6.441835523E0,-2.708190084E-1,-3.462649882E-1,-4.900899902E-2,4.423169218E-1
6.446846982E0,-2.137549967E-1,-3.504480124E-1,-8.934299648E-2,4.201037717E-1
6.451858366E0,-1.285459995E-1,-3.977580070E-1,-1.129729971E-1,4.330108593E-1
6.456869991E0,-6.706599891E-2,-4.473859966E-1,-1.136590019E-1,4.664444735E-1
6.461881377E0,-1.920000091E-2,-5.205669999E-1,-5.288799852E-2,5.235988749E-1
6.466892837E0,5.487599969E-2,-6.505579948E-1,6.495500356E-2,6.560916342E-1
6.471904457E0,1.427620053E-1,-7.869889736E-1,2.008679956E-1,8.246699864E-1
6.476915921E0,2.001170069E-1,-9.726539850E-1,3.747769892E-1,1.061395488E0
6.481927543E0,2.616229951E-1,-1.174783945E0,5.321670175E-1,1.315965670E0
6.486939007E0,3.494749963E-1,-1.350556016E0,6.582930088E-1,1.542557620E0
6.491950615E0,4.685539901E-1,-1.478453040E0,7.580590248E-1,1.726273361E0
6.496962002E0,5.806260109E-1,-1.582417011E0,8.412039876E-1,1.883824384E0
6.501973702E0,6.642119884E-1,-1.664824963E0,8.716570139E-1,1.993139652E0
6.506985089E0,7.289940119E-1,-1.701730967E0,8.852440119E-1,2.052066644E0
6.511996545E0,7.558839917E-1,-1.676393986E0,8.604869843E-1,2.030294376E0
6.517007930E0,7.210770249E-1,-1.610306978E0,8.114449978E-1,1.942030799E0
6.522019543E0,7.297040224E-1,-1.414932013E0,7.859789729E-1,1.775461491E0
6.527030993E0,6.289029717E-1,-1.200359941E0,7.243880033E-1,1.536593933E0
6.532042606E0,4.955019951E-1,-9.725319743E-1,6.199179888E-1,1.255244590E0
6.537053993E0,4.274910092E-1,-6.950250268E-1,5.110139847E-1,9.627791249E-1
6.542065456E0,3.323670030E-1,-4.396600127E-1,3.999119997E-1,6.809540065E-1
6.547077072E0,2.176789939E-1,-2.086620033E-1,3.282809854E-1,4.457492360E-1
6.552088550E0,1.347959936E-1,-4.567999858E-3,2.368820012E-1,2.725874336E-1
6.557100164E0,1.451919973E-1,2.325800061E-1,1.963589936E-1,3.372403145E-1
6.562111540E0,1.347430050E-1,4.426620007E-1,9.121800214E-2,4.716206613E-1
6.567123000E0,9.703099728E-2,6.137899756E-1,-2.532999963E-3,6.214173837E-1
6.572134615E0,4.887799919E-2,7.509599924E-1,-5.751100183E-2,7.547433235E-1
6.577146079E0,6.829000078E-3,8.543120027E-1,-9.613099694E-2,8.597306565E-1
6.582157692E0,-4.327600077E-2,8.832449913E-1,-1.284440011E-1,8.935840130E-1
6.587169156E0,-1.012990028E-1,8.904950023E-1,-1.526159942E-1,9.091394165E-1
6.592180764E0,-1.344899982E-1,8.546460271E-1,-1.645999998E-1,8.806818672E-1
6.597192151E0,-1.529799998E-1,8.023779988E-1,-1.115489975E-1,8.244128287E-1
6.602203841E0,-1.642079949E-1,7.098829746E-1,-4.446699843E-2,7.299831623E-1
6.607215228E0,-1.265670061E-1,6.156790257E-1,6.872600317E-2,6.322998760E-1
6.612226689E0,-1.367579997E-1,4.863359928E-1,1.822700053E-1,5.370733686E-1
6.617238303E0,-1.237789989E-1,3.435420096E-1,3.168739974E-1,4.834785240E-1
6.622249694E0,-9.972900152E-2,1.969130039E-1,4.508920014E-1,5.020201209E-1
6.627261154E0,-9.265799820E-2,7.037799805E-2,5.774430037E-1,5.890492252E-1
6.632272759E0,-1.066809967E-1,-4.812400043E-2,6.806219816E-1,6.906106257E-1
6.637284223E0,-1.269859970E-1,-1.660459936E-1,7.238969803E-1,7.534743217E-1
6.642295584E0,-1.300809979E-1,-2.954649925E-1,7.343479991E-1,8.021767957E-1
6.647307197E0,-1.049109995E-1,-3.550710082E-1,7.529360056E-1,8.390437219E-1
6.652318660E0,-8.008199930E-2,-3.668900132E-1,6.985300183E-1,7.930735117E-1
6.657330041E0,-6.257200241E-2,-3.289380074E-1,5.898500085E-1,6.782613808E-1
6.662341655E0,-5.228900164E-2,-2.437400073E-1,4.776619971E-1,5.387989554E-1
6.667353356E0,-4.235399887E-2,-7.086999714E-2,3.510299921E-1,3.606084762E-1
6.672364819E0,-5.102999974E-3,2.157990038E-1,2.297479957E-1,3.152449717E-1
6.677376204E0,2.132599987E-2,5.608230233E-1,5.341200158E-2,5.637642270E-1
6.682387575E0,3.016299941E-2,9.207710028E-1,-1.835819930E-1,9.393781955E-1
6.687399265E0,-2.776500024E-2,1.246819973E0,-5.137749910E-1,1.348812693E0
6.692410642E0,-4.168799892E-2,1.587079048E0,-7.953979969E-1,1.775729644E0
6.697422255E0,-9.526000358E-3,1.891162992E0,-9.680520296E-1,2.124550055E0
6.702433719E0,4.956100136E-2,2.115859985E0,-1.014350057E0,2.346960973E0
6.707445332E0,9.979200363E-2,2.275405884E0,-9.480720162E-1,2.467036872E0
6.712456795E0,1.725759953E-1,2.369757891E0,-8.910809755E-1,2.537628862E0
6.717468180E0,2.421250045E-1,2.375030994E0,-8.507339954E-1,2.534392447E0
6.722479812E0,3.065840006E-1,2.322443962E0,-8.610110283E-1,2.495812432E0
6.727491276E0,3.760269880E-1,2.209775925E0,-9.107170105E-1,2.419485773E0
6.732502889E0,4.412299991E-1,2.046827078E0,-9.961230159E-1,2.318716469E0
6.737514286E0,4.736410081E-1,1.821802974E0,-1.043820024E0,2.152408447E0
6.742525746E0,4.781309962E-1,1.546800017E0,-1.064018011E0,1.937352284E0
6.747537361E0,4.403710067E-1,1.255437016E0,-1.121858001E0,1.740291384E0
6.752548825E0,3.988449872E-1,9.950590134E-1,-1.095734000E0,1.532922948E0
6.757560209E0,3.381029963E-1,7.331420183E-1,-1.070624948E0,1.340913358E0
6.762571804E0,2.169879973E-1,4.601829946E-1,-1.030269027E0,1.149045886E0
6.767583267E0,1.116719991E-1,2.046750039E-1,-1.004959941E0,1.031652546E0
6.772594895E0,4.037899897E-2,-1.674100012E-2,-9.822859764E-1,9.832580862E-1
6.777606281E0,-2.403999912E-3,-2.043389976E-1,-9.849479795E-1,1.005923818E0
6.782617741E0,-8.220800012E-2,-4.011870027E-1,-9.723529816E-1,1.055073214E0
6.787629356E0,-2.090699971E-1,-5.571079850E-1,-9.512959719E-1,1.122071119E0
6.792640743E0,-3.467180133E-1,-6.603130102E-1,-9.376329780E-1,1.198074394E0
6.797652433E0,-4.670960009E-1,-7.206730247E-1,-9.584259987E-1,1.286906631E0
6.802663897E0,-5.639610291E-1,-7.286999822E-1,-9.795849919E-1,1.344857785E0
6.807675281E0,-6.221680045E-1,-6.917709708E-1,-1.026239991E0,1.385210678E0
6.812686880E0,-6.594730020E-1,-6.505039930E-1,-1.062675953E0,1.409730565E0
6.817698343E0,-6.698439717E-1,-5.786340237E-1,-1.112365961E0,1.421571775E0
6.822709957E0,-6.636809707E-1,-4.858810008E-1,-1.195953012E0,1.451501424E0
6.827721334E0,-6.392930150E-1,-4.030719995E-1,-1.245440006E0,1.456805891E0
6.832733025E0,-6.414170265E-1,-3.322080076E-1,-1.243659973E0,1.438216983E0
6.837744411E0,-6.368989944E-1,-2.755599916E-1,-1.224854946E0,1.407779556E0
6.842755882E0,-6.353129745E-1,-2.354259938E-1,-1.199144006E0,1.377314169E0
6.847767266E0,-6.366710067E-1,-2.043489963E-1,-1.127596021E0,1.310946707E0
6.852778895E0,-6.524850130E-1,-1.822180003E-1,-1.039685011E0,1.240921034E0
6.857790358E0,-6.941009760E-1,-1.521739960E-1,-9.361230135E-1,1.175269921E0
6.862801961E0,-7.445970178E-1,-1.236440018E-1,-8.011869788E-1,1.100732998E0
6.867813347E0,-7.574769855E-1,-6.089099869E-2,-6.703479886E-1,1.013333866E0
6.872824807E0,-7.662900090E-1,2.602000022E-3,-5.247470140E-1,9.287446243E-1
6.877836417E0,-7.686309814E-1,4.286000133E-2,-3.786129951E-1,8.578918145E-1
6.882847881E0,-7.018319964E-1,7.874000072E-2,-2.690080106E-1,7.557337155E-1
6.887859280E0,-6.675000191E-1,1.101780012E-1,-1.690199971E-1,6.973257681E-1
6.892870894E0,-6.436309814E-1,1.107460037E-1,-1.041160002E-1,6.613362678E-1
6.897882357E0,-5.694069862E-1,1.425330043E-1,-3.813799843E-2,5.882129548E-1
6.902893985E0,-4.415900111E-1,1.931689978E-1,-3.841400146E-2,4.835200463E-1
6.907905448E0,-3.846809864E-1,2.433850020E-1,-9.614299983E-2,4.652517565E-1
6.912917048E0,-3.384830058E-1,3.073799908E-1,-1.933979988E-1,4.964433401E-1
6.917928434E0,-2.934539914E-1,3.564350009E-1,-3.062059879E-1,5.540065541E-1
6.922939894E0,-2.633759975E-1,3.976910114E-1,-4.459820092E-1,6.530122580E-1
6.927951523E0,-2.431659997E-1,4.194040000E-1,-5.541369915E-1,7.362725202E-1
6.932962987E0,-2.162310034E-1,4.123739898E-1,-5.830159783E-1,7.461338923E-1
6.937974376E0,-1.641539931E-1,4.030350149E-1,-5.720149875E-1,7.187384104E-1
6.942985990E0,-1.387079954E-1,3.650859892E-1,-5.688250065E-1,6.899924460E-1
6.947997458E0,-1.599529982E-1,2.794679999E-1,-5.662140250E-1,6.513721262E-1
6.953008843E0,-1.546619982E-1,1.652570069E-1,-5.665439963E-1,6.100838564E-1
6.958020470E0,-1.353420019E-1,3.923099861E-2,-5.535110235E-1,5.711663347E-1
6.963031934E0,-1.279779971E-1,-8.429200202E-2,-5.482699871E-1,5.692833109E-1
6.968043319E0,-1.393440068E-1,-2.004030049E-1,-5.180860162E-1,5.727051918E-1
6.973054932E0,-1.875189990E-1,-3.209469914E-1,-4.777059853E-1,6.052878280E-1
6.978066396E0,-2.158920020E-1,-4.409880042E-1,-3.832980096E-1,6.228941648E-1
6.983078009E0,-2.506279945E-1,-5.341839790E-1,-2.804400027E-1,6.533096587E-1
6.988089406E0,-2.707619965E-1,-6.411989927E-1,-1.600610018E-1,7.141902627E-1
6.993101096E0,-2.791469991E-1,-7.237939835E-1,-4.111199826E-2,7.768468150E-1
6.998112559E0,-2.644129992E-1,-8.019880056E-1,-1.157620028E-1,8.523495976E-1
7.003124158E0,-4.726099968E-1,-8.809220195E-1,-4.294779897E-1,1.088041891E0
7.008135544E0,-2.096910030E-1,-8.435320258E-1,7.008200139E-2,8.720252761E-1
7.013147009E0,-8.727400005E-2,-8.873810172E-1,1.715919971E-1,9.080229261E-1
7.018158624E0,-1.468130052E-1,-9.361240268E-1,1.054719985E-1,9.534183733E-1
7.023170011E0,-1.787630022E-1,-9.584659934E-1,1.041549966E-1,9.805414498E-1
7.028181476E0,-1.539810002E-1,-9.469130039E-1,2.119970024E-1,9.824953508E-1
7.033193091E0,-9.274899960E-2,-9.206690192E-1,3.331860006E-1,9.834870263E-1
7.038204478E0,-5.630499870E-2,-9.063869715E-1,3.678880036E-1,9.798209929E-1
7.043215927E0,-1.837999932E-2,-8.803169727E-1,3.652710021E-1,9.532673821E-1
7.048227543E0,6.743399799E-2,-8.618460298E-1,3.286440074E-1,9.248420442E-1
7.053238924E0,1.578599960E-1,-8.224049807E-1,2.636640072E-1,8.779455787E-1
7.058250384E0,2.088419944E-1,-8.024410009E-1,2.196590006E-1,8.577742216E-1
7.063262009E0,2.610079944E-1,-7.826300263E-1,2.144310027E-1,8.524174953E-1
7.068273473E0,2.934199870E-1,-7.579280138E-1,2.560580075E-1,8.521243255E-1
7.073285081E0,2.742069960E-1,-7.209740281E-1,3.154110014E-1,8.333529418E-1
7.078296468E0,2.141219974E-1,-6.667569876E-1,4.131210148E-1,8.130695438E-1
7.083307904E0,1.442510039E-1,-6.262480021E-1,5.411239862E-1,8.401250387E-1
7.088319520E0,7.404500246E-2,-6.137599945E-1,6.823830009E-1,9.207771463E-1
7.093330973E0,-3.607099876E-2,-6.202329993E-1,6.974670291E-1,9.340505056E-1
7.098342587E0,-1.663279980E-1,-6.981850266E-1,7.126669884E-1,1.011445288E0
7.103353959E0,-2.397730052E-1,-7.761890292E-1,6.791480184E-1,1.058868516E0
7.108365419E0,-3.276970088E-1,-8.589159846E-1,6.538310051E-1,1.128103267E0
7.113377034E0,-1.936949939E-1,-7.726190090E-1,5.980769992E-1,9.960692650E-1
7.118388484E0,-3.728860021E-1,-7.076449990E-1,5.891900063E-1,9.934537124E-1
7.123399868E0,-4.234699905E-2,-5.847700238E-1,4.356960058E-1,7.304657819E-1
7.128411482E0,-6.938699633E-2,-5.895320177E-1,2.473469973E-1,6.430731624E-1
