"Time (s)","Linear Acceleration x (m/s^2)","Linear Acceleration y (m/s^2)","Linear Acceleration z (m/s^2)","Absolute acceleration (m/s^2)"
4.061367200E-2,5.508859754E-1,4.692409933E-1,7.928899676E-2,7.279761072E-1
4.562513100E-2,4.914860129E-1,5.138210058E-1,7.347700000E-2,7.148212339E-1
5.063651800E-2,4.035860002E-1,5.702999830E-1,2.067399956E-2,6.989643370E-1
5.564790300E-2,3.203240037E-1,6.433669925E-1,-3.797300160E-2,7.197016765E-1
6.065954500E-2,2.833989859E-1,7.305380106E-1,-1.021059975E-1,7.902065583E-1
6.567093200E-2,2.450360060E-1,8.079019785E-1,-1.574449986E-1,8.587998478E-1
7.068230100E-2,2.074059993E-1,8.468819857E-1,-1.857089996E-1,8.914674300E-1
7.569376100E-2,1.797910035E-1,8.332319856E-1,-1.875900030E-1,8.728060242E-1
8.070514700E-2,1.595029980E-1,7.885270119E-1,-1.849189997E-1,8.254762815E-1
8.571655600E-2,1.602099985E-1,7.056019902E-1,-1.755120009E-1,7.445440717E-1
9.072816900E-2,1.742680073E-1,5.798130035E-1,-1.483290046E-1,6.233409589E-1
9.573956100E-2,2.059240043E-1,4.447219968E-1,-1.014939994E-1,5.004831485E-1
1.007509460E-1,2.500079870E-1,3.099539876E-1,-4.258399829E-2,4.004857862E-1
1.057623300E-1,2.783100009E-1,1.875350028E-1,2.572200075E-2,3.365820185E-1
1.107737750E-1,2.635470033E-1,7.503800094E-2,8.229599893E-2,2.861124883E-1
1.157853900E-1,2.048230022E-1,-3.716599941E-2,1.229190007E-1,2.417495698E-1
1.207967620E-1,1.337469965E-1,-1.540939957E-1,1.107909977E-1,2.321806705E-1
1.258081460E-1,4.841100052E-2,-2.805410028E-1,9.386800230E-2,2.997633751E-1
1.308196060E-1,-3.672600165E-2,-4.263739884E-1,1.181299984E-2,4.281157836E-1
1.358309930E-1,-1.563449949E-1,-6.085569859E-1,-1.147829965E-1,6.387178554E-1
1.408426060E-1,-2.468309999E-1,-7.599239945E-1,-1.960709989E-1,8.227112839E-1
1.458539880E-1,-3.138320148E-1,-8.684890270E-1,-2.633509934E-1,9.602694774E-1
1.508653720E-1,-4.116460085E-1,-9.695289731E-1,-3.416250050E-1,1.107315000E0
1.558767570E-1,-5.120850205E-1,-1.032336950E0,-4.363259971E-1,1.232205755E0
1.608881420E-1,-6.317899823E-1,-1.071246982E0,-4.901460111E-1,1.336776642E0
1.658995960E-1,-7.634050250E-1,-1.112581015E0,-4.911119938E-1,1.435902064E0
1.709109830E-1,-9.044499993E-1,-1.132395029E0,-4.440720081E-1,1.515766556E0
1.759223670E-1,-1.045253992E0,-1.121112943E0,-3.634319901E-1,1.575288212E0
1.809339810E-1,-1.173850060E0,-1.112239003E0,-2.299840003E-1,1.633368361E0
1.859453670E-1,-1.230353951E0,-1.058706999E0,-3.802600130E-2,1.623600115E0
1.909567230E-1,-1.250251055E0,-9.730569720E-1,1.463409960E-1,1.591032136E0
1.959681830E-1,-1.225661993E0,-8.267319798E-1,3.262760043E-1,1.513997727E0
2.009795500E-1,-1.176619053E0,-6.463559866E-1,4.604060054E-1,1.419218851E0
2.059909350E-1,-1.101752043E0,-4.059700072E-1,5.458239913E-1,1.294833209E0
2.110025290E-1,-9.577299953E-1,-1.442350000E-1,5.817170143E-1,1.129798727E0
2.160139930E-1,-8.114979863E-1,1.239899993E-1,5.205950141E-1,9.720708155E-1
2.210252950E-1,-6.605600119E-1,3.985939920E-1,4.298590124E-1,8.831735222E-1
2.260367550E-1,-5.514439940E-1,6.507740021E-1,2.935140133E-1,9.020796840E-1
2.310481420E-1,-5.154340267E-1,8.544989824E-1,1.845310032E-1,1.014836163E0
2.360597450E-1,-5.117099881E-1,1.016806006E0,7.343800366E-2,1.140672919E0
2.410711320E-1,-5.389549732E-1,1.129014015E0,6.953999866E-3,1.251076923E0
2.460825160E-1,-6.091499925E-1,1.210227966E0,-2.909900062E-2,1.355198213E0
2.510939570E-1,-6.241970062E-1,1.272423029E0,-1.208980009E-1,1.422427008E0
2.561053430E-1,-6.486020088E-1,1.279716969E0,-2.684699893E-1,1.459601391E0
2.611167280E-1,-7.326959968E-1,1.212962031E0,-4.191969931E-1,1.477784298E0
2.661283420E-1,-8.525639772E-1,1.096081972E0,-5.227950215E-1,1.483770757E0
2.711397280E-1,-9.423969984E-1,9.585180283E-1,-5.477380157E-1,1.451511573E0
2.761511030E-1,-1.005941987E0,7.952780128E-1,-5.032320023E-1,1.377544499E0
2.811625620E-1,-1.050816059E0,6.114519835E-1,-3.793869913E-1,1.273586435E0
2.861739490E-1,-1.072514057E0,4.310959876E-1,-2.201800048E-1,1.176694263E0
2.911855480E-1,-1.092460990E0,2.376559973E-1,-1.478299964E-2,1.118109979E0
2.961969350E-1,-1.094138026E0,9.649000131E-3,1.982109994E-1,1.111988635E0
3.012083050E-1,-1.082671046E0,-2.122540027E-1,4.116880000E-1,1.177588793E0
3.062197640E-1,-1.028506994E0,-4.065519869E-1,6.373149753E-1,1.276433129E0
3.112311510E-1,-9.167119861E-1,-5.880420208E-1,8.075979948E-1,1.355864597E0
3.162425350E-1,-7.839779854E-1,-7.450940013E-1,9.266070127E-1,1.424214558E0
3.212541490E-1,-5.964189768E-1,-8.569059968E-1,9.496679902E-1,1.411337229E0
3.262655150E-1,-3.907220066E-1,-9.454619884E-1,9.216740131E-1,1.376969515E0
3.312769000E-1,-1.932249963E-1,-9.895349741E-1,8.560379744E-1,1.322617245E0
3.362883600E-1,-3.154199943E-2,-1.039631963E0,7.353630066E-1,1.273808568E0
3.412997320E-1,2.821500041E-2,-1.114527941E0,6.238250136E-1,1.277546972E0
3.463111170E-1,1.185690016E-1,-1.173284054E0,5.432040095E-1,1.298354603E0
3.513224910E-1,1.224870011E-1,-1.258638024E0,4.569320083E-1,1.344603883E0
3.563341050E-1,1.163550019E-1,-1.341894031E0,3.722049892E-1,1.397409972E0
3.613454920E-1,2.510359883E-1,-1.291376948E0,2.241729945E-1,1.334513777E0
3.663569420E-1,3.091270030E-1,-1.257750034E0,4.843999818E-2,1.296086836E0
3.713682520E-1,3.169679940E-1,-1.226567030E0,-1.004199982E-1,1.270834200E0
3.763797110E-1,3.009899855E-1,-1.219306946E0,-1.987220049E-1,1.271532475E0
3.813913270E-1,2.753370106E-1,-1.202461958E0,-2.706130147E-1,1.262915925E0
3.864027130E-1,2.495159954E-1,-1.207100987E0,-2.900190055E-1,1.266278820E0
3.914141120E-1,2.042559981E-1,-1.204488993E0,-3.169719875E-1,1.262135289E0
3.964254970E-1,1.441349983E-1,-1.192258954E0,-3.251720071E-1,1.244183727E0
4.014369560E-1,1.047459990E-1,-1.151306033E0,-2.643800080E-1,1.185906444E0
4.064483570E-1,9.076199681E-2,-1.067298055E0,-2.062769979E-1,1.090831370E0
4.114597410E-1,8.539400250E-2,-9.929350019E-1,-1.290760040E-1,1.004924210E0
4.164713700E-1,1.238489971E-1,-9.088400006E-1,-5.872699991E-2,9.191178278E-1
4.214827560E-1,1.829099953E-1,-8.415639997E-1,2.166399918E-2,8.614843938E-1
4.264942010E-1,2.551549971E-1,-8.079959750E-1,8.406999707E-2,8.514865428E-1
4.315055880E-1,3.333629966E-1,-7.819920182E-1,1.153130010E-1,8.578691580E-1
4.365169720E-1,4.336059988E-1,-7.996569872E-1,1.139800027E-1,9.167643647E-1
4.415285770E-1,5.529689789E-1,-8.227570057E-1,1.112580001E-1,9.975380317E-1
4.465399630E-1,6.516100168E-1,-8.439869881E-1,1.143260002E-1,1.072371244E0
4.515513380E-1,7.233679891E-1,-8.848659992E-1,8.573599905E-2,1.146123792E0
4.565627220E-1,7.991880178E-1,-9.214140177E-1,6.113300100E-2,1.221246299E0
4.615742060E-1,8.512669802E-1,-9.391000271E-1,4.018700123E-2,1.268140106E0
4.665855930E-1,8.758310080E-1,-9.566550255E-1,7.345700264E-2,1.299101506E0
4.715969870E-1,8.529980183E-1,-9.617840052E-1,1.404799968E-1,1.293200959E0
4.766086010E-1,8.306059837E-1,-9.376519918E-1,2.261770070E-1,1.272891824E0
4.816199820E-1,8.065090179E-1,-8.985090256E-1,3.369199932E-1,1.253511207E0
4.866314420E-1,7.854930162E-1,-8.538759947E-1,4.626109898E-1,1.249044603E0
4.916428290E-1,7.745019794E-1,-8.110010028E-1,5.772070289E-1,1.261246961E0
4.966542130E-1,7.571259737E-1,-7.461649776E-1,6.417769790E-1,1.241724448E0
5.016655980E-1,7.334799767E-1,-6.929060221E-1,6.973099709E-1,1.226520618E0
5.066769910E-1,7.315289974E-1,-6.227040291E-1,7.209060192E-1,1.201083041E0
5.116886050E-1,7.320799828E-1,-5.452690125E-1,7.135459781E-1,1.158623002E0
5.166999910E-1,7.256870270E-1,-4.535259902E-1,6.785190105E-1,1.092106008E0
5.217114510E-1,7.172510028E-1,-3.691000044E-1,6.188989878E-1,1.016720105E0
5.267228380E-1,7.160660028E-1,-2.824389935E-1,5.538579822E-1,9.483042602E-1
5.317342270E-1,6.800860167E-1,-2.148900032E-1,5.183069706E-1,8.816670683E-1
5.367458410E-1,6.498500109E-1,-1.904370040E-1,4.646829963E-1,8.212804491E-1
5.417573040E-1,6.205419898E-1,-1.803500056E-1,4.167290032E-1,7.689353339E-1
5.467686170E-1,6.083670259E-1,-2.181300074E-1,3.694419861E-1,7.444316754E-1
5.517800760E-1,5.642290115E-1,-2.536279857E-1,2.833420038E-1,6.804147439E-1
5.567914630E-1,5.006080270E-1,-3.227890134E-1,1.661970019E-1,6.184032562E-1
5.618028530E-1,4.413169920E-1,-4.065110087E-1,4.217199981E-2,6.014901207E-1
5.668145430E-1,3.839569986E-1,-4.974009991E-1,-3.300299868E-2,6.292216848E-1
5.718258430E-1,3.098329902E-1,-5.976589918E-1,-6.554999948E-2,6.763797415E-1
5.768373020E-1,2.333409935E-1,-6.736660004E-1,-6.133500114E-2,7.155668254E-1
5.818486890E-1,1.337430030E-1,-7.326319814E-1,-6.772799790E-2,7.478127390E-1
5.868600590E-1,3.253899887E-2,-7.839750051E-1,-3.346199915E-2,7.853631647E-1
5.918716720E-1,-5.858600140E-2,-8.324019909E-1,2.862999961E-2,8.349521369E-1
5.968828280E-1,-1.493290067E-1,-8.371509910E-1,1.249639988E-1,8.594980715E-1
6.018944410E-1,-2.327959985E-1,-8.340100050E-1,2.497860044E-1,9.011990420E-1
6.069058280E-1,-2.814399898E-1,-8.231679797E-1,3.421320021E-1,9.348092306E-1
6.119172870E-1,-2.892490029E-1,-8.167160153E-1,4.194059968E-1,9.625961903E-1
6.169286740E-1,-3.015039861E-1,-8.004050255E-1,4.683029950E-1,9.751207892E-1
6.219400590E-1,-3.017520010E-1,-7.792000175E-1,4.734520018E-1,9.603976965E-1
6.269516720E-1,-2.996169925E-1,-7.506629825E-1,4.895749986E-1,9.449597529E-1
6.319630640E-1,-3.089169860E-1,-6.810979843E-1,5.536260009E-1,9.304976719E-1
6.369744480E-1,-3.384340107E-1,-5.990030169E-1,6.596220136E-1,9.531229694E-1
6.419859080E-1,-4.084010124E-1,-5.280249715E-1,8.204439878E-1,1.057700380E0
6.469972940E-1,-4.642859995E-1,-4.251100123E-1,9.909660220E-1,1.174007525E0
6.520086790E-1,-5.020999908E-1,-3.023689985E-1,1.145979047E0,1.287167195E0
6.570200740E-1,-4.876439869E-1,-1.768880039E-1,1.244418979E0,1.348207928E0
6.620316870E-1,-4.619190097E-1,-5.157899857E-2,1.237126946E0,1.321556902E0
6.670430740E-1,-3.928990066E-1,5.862599984E-2,1.117627025E0,1.186126808E0
6.720545330E-1,-2.841970026E-1,1.485870034E-1,9.328910112E-1,9.864743650E-1
6.770659200E-1,-1.464210004E-1,2.441709936E-1,6.683509946E-1,7.264651646E-1
6.820772940E-1,-5.001899973E-2,3.025529981E-1,4.279539883E-1,5.264834595E-1
6.870889080E-1,8.503999561E-3,3.241400123E-1,2.524380088E-1,4.109306679E-1
6.921002950E-1,2.558499947E-2,3.405759931E-1,1.723340005E-1,3.825514436E-1
6.971116790E-1,1.647800021E-2,3.329339921E-1,1.219469979E-1,3.549473735E-1
7.021230640E-1,-2.951800078E-2,2.991060019E-1,1.166860014E-1,3.224148502E-1
7.071345370E-1,-8.809699863E-2,2.703939974E-1,1.482360065E-1,3.206990936E-1
7.121459240E-1,-1.518550068E-1,2.205130011E-1,1.829809994E-1,3.242961191E-1
7.171575370E-1,-2.021529973E-1,1.543859988E-1,2.628949881E-1,3.658068420E-1
7.221689240E-1,-2.254640013E-1,1.175260022E-1,3.682389855E-1,4.474889133E-1
7.271803090E-1,-2.228440046E-1,7.637999952E-2,4.846580029E-1,5.388754350E-1
7.321917840E-1,-1.580000073E-1,3.549100086E-2,5.794950128E-1,6.016960057E-1
7.372031710E-1,-5.381400138E-2,1.379599981E-2,6.631169915E-1,6.654400204E-1
7.422147790E-1,6.294500083E-2,-8.015000261E-3,7.125200033E-1,7.153398273E-1
7.472259350E-1,1.965599954E-1,-2.058799937E-2,7.241389751E-1,7.506243753E-1
7.522375580E-1,3.069159985E-1,-2.642099932E-2,6.989079714E-1,7.637852131E-1
7.572489450E-1,4.038699865E-1,-2.329399996E-2,6.332190037E-1,7.514119264E-1
7.622603300E-1,4.760560095E-1,-2.059499919E-2,5.836870074E-1,7.534878903E-1
7.672718080E-1,5.356960297E-1,8.929999894E-4,5.380849838E-1,7.592802404E-1
7.722831950E-1,5.761939883E-1,4.379799962E-2,5.263950229E-1,7.816709647E-1
7.772945740E-1,5.982499719E-1,1.155870035E-1,5.687379837E-1,8.335024165E-1
7.823061880E-1,5.561900139E-1,2.019339949E-1,5.985820293E-1,8.416799366E-1
7.873175750E-1,4.937770069E-1,2.765139937E-1,6.208599806E-1,8.400850176E-1
7.923289830E-1,3.909600079E-1,3.560740054E-1,6.311089993E-1,8.233692938E-1
7.973403680E-1,2.676779926E-1,4.428569973E-1,6.134790182E-1,8.025773069E-1
8.023518270E-1,1.131500006E-1,5.440670252E-1,5.942450166E-1,8.135963313E-1
8.073632040E-1,-4.144800082E-2,6.856799722E-1,5.106769800E-1,8.559590755E-1
8.123748170E-1,-2.054409981E-1,8.412489891E-1,4.016909897E-1,9.546001868E-1
8.173861950E-1,-3.664369881E-1,1.012388945E0,2.389550060E-1,1.102863063E0
8.223975800E-1,-5.532400012E-1,1.233947039E0,6.037000101E-3,1.352307745E0
8.274090480E-1,-7.732260227E-1,1.465250969E0,-2.756400108E-1,1.679528595E0
8.324204350E-1,-9.811149836E-1,1.758949995E0,-5.319550037E-1,2.083138935E0
8.374318190E-1,-1.119421959E0,2.139004946E0,-6.362890005E-1,2.496660043E0
8.424434330E-1,-1.175847054E0,2.619734049E0,-6.242120266E-1,2.938581875E0
8.474548190E-1,-1.180714965E0,3.122082949E0,-6.339259744E-1,3.397550869E0
8.524662190E-1,-1.231359005E0,3.583754063E0,-7.486109734E-1,3.862635961E0
8.574776790E-1,-1.331982970E0,3.978347063E0,-1.003648043E0,4.313784114E0
8.624890410E-1,-1.381813049E0,4.272367954E0,-1.470805049E0,4.725018808E0
8.675004260E-1,-1.419142008E0,4.489832878E0,-2.064459085E0,5.141454524E0
8.725118240E-1,-1.405943990E0,4.563901901E0,-2.637203932E0,5.455339004E0
8.775232090E-1,-1.335752964E0,4.477969170E0,-3.120604038E0,5.619129241E0
8.825348230E-1,-1.233541012E0,4.229792118E0,-3.417531013E0,5.576045464E0
8.875462090E-1,-1.086001992E0,3.855309010E0,-3.451853037E0,5.287541704E0
8.925575940E-1,-9.276180267E-1,3.385647058E0,-3.259670019E0,4.790462383E0
8.975690670E-1,-7.613189816E-1,2.890126944E0,-2.888497114E0,4.156423453E0
9.025804540E-1,-6.064670086E-1,2.373419046E0,-2.433387041E0,3.452867315E0
9.075918300E-1,-4.678040147E-1,1.888051987E0,-1.960620999E0,2.761813825E0
9.126034430E-1,-3.401919901E-1,1.386023045E0,-1.560274005E0,2.114531967E0
9.176148300E-1,-2.057940066E-1,9.179990292E-1,-1.226925015E0,1.546097793E0
9.226262030E-1,-7.266099751E-2,4.675849974E-1,-1.040017009E0,1.142606988E0
9.276376630E-1,8.046499640E-2,-8.042500168E-2,-9.020770192E-1,9.092226048E-1
9.326490540E-1,1.185310036E-1,-5.527639985E-1,-9.789369702E-1,1.130449127E0
9.376604390E-1,1.893039942E-1,-9.991760254E-1,-1.252892971E0,1.613669585E0
9.426720520E-1,3.067350090E-1,-1.359928012E0,-1.370633006E0,1.955025678E0
9.476834340E-1,2.852379978E-1,-1.725921988E0,-1.645648003E0,2.401733702E0
9.526948190E-1,2.269220054E-1,-2.063647985E0,-2.116380930E0,2.964659313E0
9.577062640E-1,3.681829870E-1,-2.128978014E0,-2.405127048E0,3.233070091E0
9.627176510E-1,3.857569993E-1,-2.173084974E0,-2.828239918E0,3.587484885E0
9.677292640E-1,3.029440045E-1,-2.162414074E0,-3.151623964E0,3.834128755E0
9.727406510E-1,2.384800017E-1,-2.013196945E0,-3.136224985E0,3.734399792E0
9.777520360E-1,3.811230063E-1,-1.665627003E0,-3.564498901E0,3.952874963E0
9.827634050E-1,3.676730096E-1,-1.341951013E0,-4.088704109E0,4.318971782E0
9.877747900E-1,2.007659972E-1,-1.027358055E0,-4.274680138E0,4.400984190E0
9.927862590E-1,-5.898999982E-3,-6.665019989E-1,-4.284593105E0,4.336127050E0
9.977976460E-1,-2.027730048E-1,-3.065960109E-1,-4.054155827E0,4.070785854E0
1.002809031E0,-3.577030003E-1,5.736799911E-2,-3.549865007E0,3.568302691E0
1.007820415E0,-5.644829869E-1,3.245519996E-1,-2.917572021E0,2.989348013E0
1.012832024E0,-8.073070049E-1,4.297299981E-1,-2.280276060E0,2.456841749E0
1.017843410E0,-9.620040059E-1,4.342060089E-1,-1.767312050E0,2.058489360E0
1.022854795E0,-9.842680097E-1,3.372609913E-1,-1.362714052E0,1.714502283E0
1.027866179E0,-9.427070022E-1,1.646839976E-1,-1.074712992E0,1.439036249E0
1.032877870E0,-8.947899938E-1,-7.435999811E-2,-9.137349725E-1,1.281050406E0
1.037889026E0,-8.130429983E-1,-3.130559921E-1,-7.856019735E-1,1.173121235E0
1.042900611E0,-7.059220076E-1,-4.940580130E-1,-6.547170281E-1,1.082161535E0
1.047911998E0,-5.839400291E-1,-6.055070162E-1,-5.258929729E-1,9.920625602E-1
1.052923391E0,-5.012210011E-1,-6.568480134E-1,-3.619900048E-1,9.020579628E-1
1.057934776E0,-4.080229998E-1,-7.007369995E-1,-1.826149970E-1,8.311818982E-1
1.062946235E0,-3.257710040E-1,-7.086169720E-1,-5.289699882E-2,7.817050930E-1
1.067957847E0,-2.401030064E-1,-7.260580063E-1,4.521200061E-2,7.660638401E-1
1.072969234E0,-1.625829935E-1,-7.507960200E-1,8.959499747E-2,7.734049114E-1
1.077980622E0,-4.662699997E-2,-7.855420113E-1,6.363900006E-2,7.894936674E-1
1.082992007E0,6.040300056E-2,-8.208739758E-1,-2.343299985E-2,8.234268104E-1
1.088003391E0,1.474329978E-1,-8.783569932E-1,-1.420200020E-1,9.018964338E-1
1.093014832E0,3.008759916E-1,-9.319350123E-1,-3.026849926E-1,1.025010943E0
1.098026219E0,4.697099924E-1,-9.723600149E-1,-4.772880077E-1,1.180641909E0
1.103037598E0,6.411340237E-1,-1.015159965E0,-6.709949970E-1,1.375440612E0
1.108049212E0,7.818790078E-1,-1.055538058E0,-8.096129894E-1,1.543038745E0
1.113060608E0,9.015330076E-1,-1.091078997E0,-8.885160089E-1,1.671130108E0
1.118071993E0,9.979019761E-1,-1.133749962E0,-9.100030065E-1,1.763321525E0
1.123083452E0,1.035133004E0,-1.181141019E0,-9.268500209E-1,1.823635217E0
1.128094848E0,1.032400012E0,-1.250013947E0,-9.077960253E-1,1.858084572E0
1.133106461E0,1.047119021E0,-1.330813050E0,-8.862289786E-1,1.911262259E0
1.138117617E0,1.005103946E0,-1.402006030E0,-8.429509997E-1,1.920005531E0
1.143129222E0,9.588840008E-1,-1.473204970E0,-8.063799739E-1,1.933918321E0
1.148140608E0,8.917469978E-1,-1.525264978E0,-7.860670090E-1,1.933790916E0
1.153151993E0,7.701539993E-1,-1.586892009E0,-8.084430099E-1,1.940346240E0
1.158163442E0,6.537039876E-1,-1.612632990E0,-8.711609840E-1,1.945979322E0
1.163174829E0,5.398970246E-1,-1.612043023E0,-9.529259801E-1,1.948907240E0
1.168186443E0,4.596560001E-1,-1.592270970E0,-9.943339825E-1,1.932695152E0
1.173197844E0,3.985610008E-1,-1.570057988E0,-1.002681017E0,1.905072749E0
1.178209229E0,3.564710021E-1,-1.523856044E0,-9.853379726E-1,1.849351167E0
1.183220617E0,3.116750121E-1,-1.482391000E0,-9.279419780E-1,1.776429200E0
1.188232002E0,2.951509953E-1,-1.400210023E0,-8.280419707E-1,1.653286340E0
1.193243448E0,2.830390036E-1,-1.296458960E0,-7.214630246E-1,1.510438945E0
1.198254834E0,3.780589998E-1,-1.128087044E0,-6.200450063E-1,1.341627666E0
1.203266219E0,5.087069869E-1,-9.357780218E-1,-5.666310191E-1,1.206455145E0
1.208277832E0,4.879820049E-1,-8.200849891E-1,-5.041419864E-1,1.079270573E0
1.213289219E0,4.905990064E-1,-7.258319855E-1,-4.594039917E-1,9.892277209E-1
1.218300598E0,5.250679851E-1,-6.363570094E-1,-4.201479852E-1,9.258352779E-1
1.223312058E0,5.555980206E-1,-5.564299822E-1,-3.744759858E-1,8.709395785E-1
1.228323445E0,5.777599812E-1,-4.860740006E-1,-3.433890045E-1,8.294519506E-1
1.233334829E0,5.710750222E-1,-4.419679940E-1,-3.054319918E-1,7.840606420E-1
1.238346443E0,5.272259712E-1,-4.120970070E-1,-2.724359930E-1,7.225043517E-1
1.243357829E0,4.474790096E-1,-4.298360050E-1,-2.140000015E-1,6.563478162E-1
1.248369233E0,3.445720077E-1,-4.711889923E-1,-1.448500007E-1,6.014403192E-1
1.253380618E0,2.123270035E-1,-5.051050186E-1,-1.072190031E-1,5.583097266E-1
1.258392007E0,1.026289985E-1,-5.459529757E-1,-5.839399993E-2,5.585760667E-1
1.263403467E0,-1.064400002E-2,-5.769929886E-1,-2.213600092E-2,5.775155462E-1
1.268415082E0,-1.088479981E-1,-5.935059786E-1,1.862999983E-3,6.034075771E-1
1.273426459E0,-2.015679926E-1,-6.241040230E-1,4.380099848E-2,6.573081580E-1
1.278437843E0,-2.705259919E-1,-6.448720098E-1,8.910200000E-2,7.049704871E-1
1.283449228E0,-2.956160009E-1,-6.679319739E-1,1.098809987E-1,7.386445530E-1
1.288460683E0,-2.851710021E-1,-6.765959859E-1,1.206749976E-1,7.440880886E-1
1.293472069E0,-2.264389992E-1,-6.614149809E-1,1.218350008E-1,7.096394611E-1
1.298483459E0,-1.650210023E-1,-6.295670271E-1,1.252669990E-1,6.627808038E-1
1.303495072E0,-1.008540019E-1,-6.049110293E-1,1.471109986E-1,6.306588056E-1
1.308506459E0,-3.865600005E-2,-5.802140236E-1,1.797360033E-1,6.086440917E-1
1.313517858E0,7.722000126E-3,-5.840809941E-1,2.367320061E-1,6.302795250E-1
1.318529243E0,5.731400102E-2,-5.853840113E-1,2.964400053E-1,6.586622899E-1
1.323540687E0,1.123699993E-1,-6.009060144E-1,3.472009897E-1,7.030388198E-1
1.328552073E0,1.518100053E-1,-6.139490008E-1,3.730309904E-1,7.342559316E-1
1.333563453E0,1.948100030E-1,-6.270930171E-1,3.492310047E-1,7.437465187E-1
1.338575066E0,1.949490011E-1,-6.595000029E-1,2.980749905E-1,7.495292301E-1
1.343586453E0,2.439070046E-1,-6.730489731E-1,2.227160037E-1,7.497252599E-1
1.348597843E0,3.009060025E-1,-7.012519836E-1,1.399150044E-1,7.758060166E-1
1.353609227E0,3.263759911E-1,-7.080519795E-1,8.458600193E-2,7.842280823E-1
1.358620701E0,3.469989896E-1,-6.909059882E-1,6.516899914E-2,7.758907022E-1
1.363632087E0,3.282560110E-1,-6.664419770E-1,6.437599659E-2,7.456816924E-1
1.368643697E0,1.719550043E-1,-6.843979955E-1,1.415970027E-1,7.197352645E-1
1.373655083E0,1.912499964E-2,-6.920070052E-1,2.551020086E-1,7.377780802E-1
1.378666477E0,-1.350550056E-1,-7.035719752E-1,3.760080040E-1,8.090954195E-1
1.383677862E0,-2.766560018E-1,-7.168070078E-1,4.669710100E-1,8.991177642E-1
1.388689321E0,-3.644810021E-1,-7.147480249E-1,6.194959879E-1,1.013650048E0
1.393700631E0,-4.187810123E-1,-7.118120193E-1,7.528300285E-1,1.117500308E0
1.398712090E0,-4.615890086E-1,-6.937620044E-1,8.561429977E-1,1.194717943E0
1.403723477E0,-4.539709985E-1,-6.897100210E-1,8.745869994E-1,1.202785101E0
1.408735090E0,-3.908460140E-1,-7.069479823E-1,8.849409819E-1,1.198188882E0
1.413746477E0,-2.720569968E-1,-7.052530050E-1,8.320209980E-1,1.124124438E0
1.418757857E0,-1.091310009E-1,-6.990849972E-1,7.945899963E-1,1.063956141E0
1.423769241E0,1.100289971E-1,-6.650850177E-1,6.963570118E-1,9.692045960E-1
1.428780617E0,3.301250041E-1,-5.913529992E-1,6.140149832E-1,9.141637094E-1
1.433792077E0,5.281289816E-1,-4.827280045E-1,5.384299755E-1,8.954626659E-1
1.438803463E0,6.654729843E-1,-3.463949859E-1,4.439760149E-1,8.717559755E-1
1.443814857E0,7.281119823E-1,-1.918849945E-1,3.311080039E-1,8.225566365E-1
1.448826470E0,7.093729973E-1,-2.866099961E-2,2.046249956E-1,7.388524149E-1
1.453837857E0,6.607450247E-1,1.748500019E-1,1.457670033E-1,6.988594494E-1
1.458849302E0,5.649359822E-1,3.734149933E-1,1.032029986E-1,6.850126131E-1
1.463860689E0,4.164580107E-1,5.526840091E-1,3.401499987E-2,6.928592272E-1
1.468872074E0,2.286410034E-1,6.986200213E-1,-1.343999989E-3,7.350839741E-1
1.473883682E0,4.444599897E-2,8.114699721E-1,3.469999938E-4,8.126863373E-1
1.478895069E0,-1.433680058E-1,8.938750029E-1,4.239900038E-2,9.062916644E-1
1.483906472E0,-2.814669907E-1,9.340739846E-1,1.329119951E-1,9.845727368E-1
1.488917857E0,-3.738070130E-1,9.816300273E-1,2.499279976E-1,1.079719036E0
1.493929228E0,-4.254859984E-1,1.017477036E0,4.301950037E-1,1.183792885E0
1.498940612E0,-4.344289899E-1,1.039178967E0,5.830199718E-1,1.268279843E0
1.503952072E0,-3.863910139E-1,1.070603967E0,7.015349865E-1,1.337027377E0
1.508963453E0,-3.246040046E-1,1.083011031E0,7.093319893E-1,1.334703160E0
1.513975067E0,-2.491579950E-1,1.124261975E0,6.590470076E-1,1.326796011E0
1.518986463E0,-1.433299929E-1,1.227903008E0,5.289059877E-1,1.344630369E0
1.523997848E0,-4.056699947E-2,1.398797035E0,2.922199965E-1,1.429570339E0
1.529009233E0,3.739799932E-2,1.656146049E0,-5.849900097E-2,1.657600821E0
1.534020697E0,7.142899930E-2,2.019181967E0,-4.422709942E-1,2.068284688E0
1.539032313E0,4.250299931E-2,2.502337933E0,-8.330690265E-1,2.637708406E0
1.544043468E0,-7.078199834E-2,3.086543083E0,-1.022943020E0,3.252409986E0
1.549055082E0,-3.350319862E-1,3.718996048E0,-9.487529993E-1,3.852701687E0
1.554066468E0,-8.263760209E-1,4.241460800E0,-6.615160108E-1,4.371554698E0
1.559077853E0,-1.594907045E0,4.517084122E0,-4.652999938E-1,4.812928581E0
1.564089313E0,-2.444890976E0,4.581370831E0,-4.373719990E-1,5.211309321E0
1.569100699E0,-2.965109110E0,4.785828114E0,-6.317669749E-1,5.665258359E0
1.574112074E0,-3.499069929E0,4.647235870E0,-1.245391965E0,5.949058140E0
1.579123458E0,-3.914485931E0,4.108395100E0,-2.191073895E0,6.083002155E0
1.584134843E0,-3.480693102E0,3.865961075E0,-2.829179049E0,5.921582018E0
1.589146457E0,-2.548497915E0,3.862827063E0,-3.266360044E0,5.664396038E0
1.594157843E0,-1.760082006E0,3.824047089E0,-3.520324945E0,5.487614466E0
1.599169233E0,-1.267786026E0,3.586951971E0,-3.533801079E0,5.192422933E0
1.604180692E0,-1.030720949E0,3.189702988E0,-3.394709110E0,4.770811332E0
1.609192089E0,-9.195690155E-1,2.636893988E0,-3.324732065E0,4.341965037E0
1.614203702E0,-9.611960053E-1,1.933114052E0,-3.521630049E0,4.130702833E0
1.619215079E0,-1.039595008E0,1.173957944E0,-3.901209116E0,4.204565091E0
1.624226464E0,-1.099416971E0,3.769170046E-1,-4.166763783E0,4.325818365E0
1.629237848E0,-1.129119992E0,-3.966740072E-1,-4.326898098E0,4.489355118E0
1.634249257E0,-1.166429043E0,-1.126595020E0,-4.337518215E0,4.630749110E0
1.639260716E0,-1.229365945E0,-1.769369006E0,-4.334793091E0,4.840706400E0
1.644272094E0,-1.209046006E0,-2.340138912E0,-4.110651970E0,4.882161611E0
1.649283479E0,-1.131193042E0,-2.767054081E0,-3.734678984E0,4.783723769E0
1.654295092E0,-1.086001992E0,-3.045348883E0,-3.187506914E0,4.540236830E0
1.659306493E0,-1.067777038E0,-3.189420938E0,-2.509422064E0,4.196397600E0
1.664317877E0,-1.066130042E0,-3.232950926E0,-1.776064992E0,3.839662981E0
1.669329262E0,-1.020390987E0,-3.087588072E0,-1.103670001E0,3.434018832E0
1.674340711E0,-9.635409713E-1,-2.825288057E0,-5.991370082E-1,3.044606537E0
1.679352098E0,-8.518990278E-1,-2.455749035E0,-1.901009977E-1,2.606256638E0
1.684363454E0,-6.586670280E-1,-2.079586983E0,1.023539975E-1,2.183804161E0
1.689374838E0,-4.502840042E-1,-1.720818996E0,3.408080041E-1,1.811111205E0
1.694386223E0,-2.408809960E-1,-1.396307945E0,5.161730051E-1,1.508023244E0
1.699397865E0,-7.181599736E-2,-1.106124997E0,5.606470108E-1,1.242173546E0
1.704409329E0,6.937299669E-2,-8.319979906E-1,5.136240125E-1,9.802259409E-1
1.709420709E0,2.112739980E-1,-5.627470016E-1,3.360320032E-1,6.886496912E-1
1.714432016E0,3.350139856E-1,-2.683390081E-1,-4.290099815E-2,4.313707100E-1
1.719443456E0,5.062469840E-1,9.879700094E-2,-5.512539744E-1,7.549356268E-1
1.724455071E0,6.402879953E-1,5.103920102E-1,-1.113214016E0,1.381924081E0
1.729466458E0,6.731569767E-1,9.052879810E-1,-1.651404023E0,1.999955472E0
1.734477922E0,7.500479817E-1,1.304276943E0,-2.160427094E0,2.632708785E0
1.739489309E0,7.298099995E-1,1.603278995E0,-2.521305084E0,3.075728450E0
1.744500699E0,5.210369825E-1,1.706779957E0,-2.795217037E0,3.316295470E0
1.749512083E0,5.874599814E-1,2.000102043E0,-2.841500044E0,3.524150949E0
1.754523477E0,4.512349963E-1,2.059525013E0,-2.644992113E0,3.382490145E0
1.759534862E0,-1.996330023E-1,1.404121041E0,-2.605602980E0,2.966576499E0
1.764546466E0,-4.669669867E-1,9.021989703E-1,-2.194489956E0,2.418224000E0
1.769557929E0,-6.135150194E-1,4.319419861E-1,-1.704689980E0,1.862509727E0
1.774569237E0,-6.589379907E-1,6.722500175E-2,-1.219521999E0,1.387786865E0
1.779580697E0,-6.754840016E-1,-2.882469893E-1,-8.104320168E-1,1.093693292E0
1.784592083E0,-7.864559889E-1,-6.737740040E-1,-6.094020009E-1,1.201605272E0
1.789603473E0,-8.935790062E-1,-1.009168029E0,-4.772439897E-1,1.429917961E0
1.794614858E0,-9.084690213E-1,-1.272954941E0,-4.729279876E-1,1.633827141E0
1.799626242E0,-7.037770152E-1,-1.496234059E0,-3.164809942E-1,1.683501906E0
1.804637855E0,-6.113799810E-1,-1.786733985E0,-4.215759933E-1,1.934923805E0
1.809649241E0,-6.476160288E-1,-2.101310015E0,-4.752210081E-1,2.249610034E0
1.814660641E0,-7.287920117E-1,-2.382494926E0,-4.705350101E-1,2.535512387E0
1.819672100E0,-8.333770037E-1,-2.611121893E0,-4.675169885E-1,2.780476021E0
1.824683472E0,-9.229580164E-1,-2.767987967E0,-4.139499962E-1,2.947026210E0
1.829695085E0,-1.016746998E0,-2.869822025E0,-2.765130103E-1,3.057141207E0
1.834706472E0,-1.143453956E0,-2.902235031E0,-1.774899960E-1,3.124413197E0
1.839717867E0,-1.310197949E0,-2.886744022E0,-2.200999996E-3,3.170160021E0
1.844729251E0,-1.471634030E0,-2.818557978E0,1.320890039E-1,3.182361277E0
1.849740711E0,-1.573089004E0,-2.767071009E0,3.354560137E-1,3.200597088E0
1.854752021E0,-1.641078949E0,-2.648549080E0,4.309389889E-1,3.145419011E0
1.859763480E0,-1.644688964E0,-2.484533072E0,5.621749759E-1,3.032152218E0
1.864774886E0,-1.584009051E0,-2.310942888E0,6.623479724E-1,2.878931493E0
1.869786270E0,-1.485476017E0,-2.099107981E0,7.103360295E-1,2.667858802E0
1.874797894E0,-1.363369942E0,-1.865821958E0,6.490759850E-1,2.400285152E0
1.879809280E0,-1.287083983E0,-1.630246043E0,5.170360208E-1,2.140470413E0
1.884820665E0,-1.242179990E0,-1.401947975E0,3.477149904E-1,1.905091853E0
1.889832115E0,-1.243127942E0,-1.180914044E0,1.122860014E-1,1.718293690E0
1.894843501E0,-1.249449968E0,-9.790700078E-1,-1.404149979E-1,1.593555671E0
1.899854896E0,-1.270365953E0,-8.042179942E-1,-3.753069937E-1,1.549661762E0
1.904866280E0,-1.293845057E0,-6.513320208E-1,-5.869309902E-1,1.562931995E0
1.909877665E0,-1.287300944E0,-5.295670033E-1,-7.096400261E-1,1.562425646E0
1.914889309E0,-1.241925001E0,-4.577330053E-1,-7.444810271E-1,1.518601071E0
1.919900695E0,-1.168077946E0,-4.237079918E-1,-7.152519822E-1,1.433708460E0
1.924912080E0,-1.073228002E0,-4.512070119E-1,-6.057990193E-1,1.312401830E0
1.929923539E0,-9.625700116E-1,-5.187230110E-1,-4.717870057E-1,1.190881005E0
1.934934926E0,-8.389880061E-1,-5.928599834E-1,-3.346309960E-1,1.080445157E0
1.939946539E0,-7.353889942E-1,-6.784759760E-1,-2.129019946E-1,1.022963285E0
1.944957699E0,-6.559460163E-1,-7.588229775E-1,-7.553700358E-2,1.005874409E0
1.949969313E0,-6.068050265E-1,-8.435530066E-1,2.835600078E-2,1.039518195E0
1.954980704E0,-5.941309929E-1,-9.398819804E-1,1.116970032E-1,1.117517783E0
1.959992089E0,-5.890709758E-1,-1.021427035E0,2.170519978E-1,1.198928427E0
1.965003548E0,-6.254540086E-1,-1.085805058E0,3.255749941E-1,1.294667687E0
1.970014950E0,-6.817259789E-1,-1.152626038E0,4.629670084E-1,1.416910563E0
1.975026335E0,-7.459149957E-1,-1.219514966E0,6.198999882E-1,1.558166207E0
1.980037952E0,-7.940369844E-1,-1.296084046E0,7.848830223E-1,1.710663598E0
1.985049339E0,-8.500919938E-1,-1.377581000E0,9.271069765E-1,1.865452534E0
1.990060723E0,-8.852530122E-1,-1.466423035E0,1.032565951E0,2.000065463E0
1.995072104E0,-8.970080018E-1,-1.536290050E0,1.110890031E0,2.097352410E0
2.000083563E0,-8.684939742E-1,-1.603909969E0,1.181099057E0,2.172971228E0
2.005094949E0,-8.186590075E-1,-1.666854978E0,1.197438002E0,2.209630253E0
2.010106334E0,-7.330110073E-1,-1.720299006E0,1.164338946E0,2.202820689E0
2.015117947E0,-6.329619884E-1,-1.747437000E0,1.126731992E0,2.173407907E0
2.020129334E0,-5.302910209E-1,-1.762578964E0,1.100947976E0,2.144756307E0
2.025140718E0,-4.059090018E-1,-1.729794025E0,1.120018005E0,2.100330884E0
2.030152103E0,-2.764509916E-1,-1.677760005E0,1.159700990E0,2.058205571E0
2.035163488E0,-1.633419991E-1,-1.599290967E0,1.258172035E0,2.041423297E0
2.040174933E0,-5.945700034E-2,-1.477627039E0,1.398555994E0,2.035405530E0
2.045186320E0,3.767599910E-2,-1.324753046E0,1.566743016E0,2.052090103E0
2.050197713E0,6.704399735E-2,-1.183084011E0,1.658105969E0,2.038013268E0
2.055209098E0,5.850600079E-2,-1.052958012E0,1.701251030E0,2.001599009E0
2.060220711E0,-9.754999541E-3,-8.349369764E-1,1.445906997E0,1.669689180E0
2.065232156E0,-1.125060022E-1,-9.717339873E-1,1.817651987E0,2.064166488E0
2.070243541E0,-2.012529969E-1,-7.470849752E-1,1.178753972E0,1.409999878E0
2.075254935E0,-3.183340132E-1,-4.916209877E-1,1.135347009E0,1.277513432E0
2.080266320E0,-4.002450109E-1,-2.345609963E-1,9.802309871E-1,1.084466559E0
2.085277705E0,-4.178999960E-1,5.952899903E-2,7.470160127E-1,8.580309036E-1
2.090289327E0,-4.193800092E-1,3.211910129E-1,4.836240113E-1,7.161951153E-1
2.095300714E0,-4.633120000E-1,5.863720179E-1,2.161940038E-1,7.779652949E-1
2.100312098E0,-4.205909967E-1,8.360589743E-1,-1.634000055E-2,9.360333277E-1
2.105323474E0,-3.170390129E-1,1.040246010E0,-2.494399995E-1,1.115726584E0
2.110334933E0,-1.703239977E-1,1.280310988E0,-4.511429965E-1,1.368114211E0
2.115346320E0,4.606899992E-2,1.520436049E0,-6.172140241E-1,1.641584991E0
2.120357689E0,2.057150006E-1,1.631474018E0,-7.505459785E-1,1.807579984E0
2.125369073E0,2.415650040E-1,1.702049971E0,-8.183730245E-1,1.903959601E0
2.130380687E0,2.638399899E-1,1.799206972E0,-7.158259749E-1,1.954268174E0
2.135392136E0,2.487809956E-1,1.851194978E0,-5.508360267E-1,1.947366210E0
2.140403521E0,2.130720019E-1,1.805359960E0,-2.994729877E-1,1.842392014E0
2.145414829E0,1.664540023E-1,1.671270013E0,-1.432199962E-2,1.679599807E0
2.150426288E0,7.293500006E-2,1.432158947E0,2.640570104E-1,1.458123749E0
2.155437675E0,-1.503400039E-2,1.131029010E0,5.481659770E-1,1.256956077E0
2.160449059E0,-4.694399983E-2,8.300600052E-1,8.063039780E-1,1.158157786E0
2.165460673E0,-1.075560004E-1,5.397999883E-1,1.008504033E0,1.148926762E0
2.170472069E0,-1.752469987E-1,2.936719954E-1,1.172849059E0,1.221691314E0
2.175483529E0,-2.245869935E-1,1.059119999E-1,1.295848966E0,1.319424576E0
2.180494838E0,-3.004109859E-1,-9.153000079E-3,1.397693992E0,1.429642974E0
2.185506297E0,-3.859060109E-1,-5.375599861E-2,1.537556052E0,1.586156288E0
2.190517684E0,-4.694069922E-1,-3.027099930E-2,1.682397008E0,1.746916984E0
2.195529312E0,-5.233439803E-1,8.258499950E-2,1.788707972E0,1.865525505E0
2.200540699E0,-5.347539783E-1,2.797090113E-1,1.851215959E0,1.947100273E0
2.205552083E0,-4.795469940E-1,5.640839934E-1,1.793431044E0,1.940245082E0
2.210563458E0,-3.785789907E-1,9.708020091E-1,1.540156007E0,1.859531962E0
2.215574918E0,-2.913379967E-1,1.466413975E0,1.198879004E0,1.916392089E0
2.220586304E0,-2.462829947E-1,1.993546009E0,8.627179861E-1,2.186129760E0
2.225597684E0,-1.856130064E-1,2.506750107E0,6.394469738E-1,2.593673210E0
2.230609068E0,-1.781949997E-1,2.974828959E0,5.441309810E-1,3.029428876E0
2.235620673E0,-2.260410041E-1,3.366537094E0,4.987739921E-1,3.410783200E0
2.240632060E0,-3.574630022E-1,3.597920895E0,3.826189935E-1,3.635823408E0
2.245643458E0,-5.342260003E-1,3.613729954E0,4.608500004E-2,3.653295146E0
2.250654843E0,-7.712029815E-1,3.413804054E0,-5.340179801E-1,3.540337182E0
2.255666227E0,-1.052700043E0,3.132112980E0,-1.274093986E0,3.541415618E0
2.260677687E0,-1.164878964E0,2.778292894E0,-2.110356092E0,3.678241053E0
2.265689074E0,-1.046782970E0,2.460220098E0,-2.919858932E0,3.959042019E0
2.270700473E0,-7.662469745E-1,2.204503059E0,-3.460335970E0,4.173834351E0
2.275712087E0,-4.122200012E-1,2.064007998E0,-3.649434090E0,4.212887788E0
2.280723453E0,-2.546500042E-2,2.014930964E0,-3.470980883E0,4.013515110E0
2.285734838E0,2.509109974E-1,1.999825954E0,-3.015626907E0,3.627156713E0
2.290746297E0,3.839190006E-1,1.982671022E0,-2.435640097E0,3.163972323E0
2.295757593E0,3.381099999E-1,1.934545040E0,-1.878077984E0,2.717344255E0
2.300769053E0,2.311140001E-1,1.855270982E0,-1.447203040E0,2.364284403E0
2.305780434E0,1.280830055E-1,1.749495029E0,-1.194839001E0,2.122446313E0
2.310792048E0,8.214899898E-2,1.624364972E0,-1.051313043E0,1.936638617E0
2.315803449E0,7.013799995E-2,1.465520978E0,-1.042773962E0,1.800013503E0
2.320814834E0,9.021499753E-2,1.256224990E0,-1.114153028E0,1.681540050E0
2.325826219E0,1.190270036E-1,1.014346957E0,-1.254650950E0,1.617781254E0
2.330837678E0,1.255500019E-1,6.633599997E-1,-1.487892985E0,1.633901719E0
2.335849065E0,2.238299996E-1,2.793059945E-1,-1.778185010E0,1.813850500E0
2.340860668E0,3.249540031E-1,-4.878000170E-2,-1.976763964E0,2.003888810E0
2.345871824E0,3.641510010E-1,-4.117929935E-1,-2.185432911E0,2.253507584E0
2.350883193E0,3.757590055E-1,-8.001610041E-1,-2.407825947E0,2.564971394E0
2.355894808E0,4.282310009E-1,-1.119626999E0,-2.695502996E0,2.950030985E0
2.360906181E0,5.036690235E-1,-1.389122963E0,-2.954866886E0,3.303722659E0
2.365917565E0,6.187750101E-1,-1.589480042E0,-3.150190115E0,3.582321465E0
2.370928935E0,7.375059724E-1,-1.735067964E0,-3.286215067E0,3.788612591E0
2.375940394E0,7.639170289E-1,-1.797112942E0,-3.401618004E0,3.922268374E0
2.380951781E0,7.215219736E-1,-1.777971029E0,-3.467961073E0,3.963398661E0
2.385963147E0,5.906289816E-1,-1.677610040E0,-3.461658001E0,3.891824014E0
2.390974760E0,3.826540112E-1,-1.527096033E0,-3.411825895E0,3.757526091E0
2.395986152E0,1.398150027E-1,-1.302499056E0,-3.318758011E0,3.567941530E0
2.400997536E0,-1.144049987E-1,-1.061205983E0,-3.103868961E0,3.282262813E0
2.406008986E0,-3.837580085E-1,-8.076329827E-1,-2.741143942E0,2.883298693E0
2.411020373E0,-6.474959850E-1,-5.509020090E-1,-2.399934053E0,2.546061181E0
2.416031786E0,-8.433740139E-1,-3.420900106E-1,-2.134938002E0,2.320832948E0
2.421043171E0,-1.015102983E0,-1.649489999E-1,-1.910738945E0,2.169922937E0
2.426054784E0,-1.137397051E0,-7.252799720E-2,-1.728199005E0,2.070170081E0
2.431066171E0,-1.206892014E0,2.328599989E-2,-1.595203042E0,2.000450778E0
2.436077630E0,-1.320287943E0,1.080899984E-1,-1.487102032E0,1.991561235E0
2.441088920E0,-1.390020967E0,1.409170032E-1,-1.426458955E0,1.996697533E0
2.446100380E0,-1.286815047E0,1.644749939E-1,-1.353965998E0,1.875145038E0
2.451111762E0,-1.187075019E0,1.789029986E-1,-1.242262959E0,1.727533109E0
2.456123147E0,-1.097273946E0,1.651300043E-1,-1.113618016E0,1.572076053E0
2.461134546E0,-1.003206968E0,1.614540070E-1,-9.593350291E-1,1.397431686E0
2.466146159E0,-9.003900290E-1,1.700839996E-1,-8.313260078E-1,1.237228234E0
2.471157546E0,-7.428619862E-1,2.027550042E-1,-7.056620121E-1,1.044467519E0
2.476168925E0,-5.647019744E-1,2.401120067E-1,-6.101449728E-1,8.653432749E-1
2.481180310E0,-3.664390147E-1,2.700800002E-1,-5.182319880E-1,6.897718110E-1
2.486191699E0,-1.740220040E-1,2.472410053E-1,-4.205670059E-1,5.179656157E-1
2.491203159E0,5.675600097E-2,2.527120113E-1,-3.542929888E-1,4.388714233E-1
2.496214516E0,2.574239969E-1,1.741909981E-1,-2.698070109E-1,4.115889225E-1
2.501226129E0,4.241240025E-1,-1.906899922E-2,-1.048439965E-1,4.373065970E-1
2.506237526E0,5.900570154E-1,-2.673079967E-1,4.075299948E-2,6.490621338E-1
2.511248910E0,7.641350031E-1,-5.442309976E-1,1.793349981E-1,9.551181724E-1
2.516260290E0,8.782929778E-1,-8.592919707E-1,2.971520126E-1,1.264152113E0
2.521271674E0,1.126649976E0,-1.147333026E0,3.773460090E-1,1.651697082E0
2.526283134E0,1.385931969E0,-1.390172958E0,3.541750014E-1,1.994700029E0
2.531294521E0,1.653859019E0,-1.621302009E0,3.113909960E-1,2.336842787E0
2.536305905E0,1.887683988E0,-1.831110001E0,2.225849926E-1,2.639291335E0
2.541317533E0,2.152492046E0,-1.969267964E0,8.501199633E-2,2.918641013E0
2.546328919E0,2.345874071E0,-2.100286007E0,-1.330080032E-1,3.151510368E0
2.551340319E0,2.465724945E0,-2.159473896E0,-3.267790079E-1,3.293920390E0
2.556351704E0,2.500500917E0,-2.216144085E0,-5.231999755E-1,3.381942882E0
2.561363182E0,2.440694094E0,-2.246306896E0,-6.534510255E-1,3.380810639E0
2.566374569E0,2.293534040E0,-2.278639078E0,-7.155489922E-1,3.311269364E0
2.571385953E0,2.073254108E0,-2.313143015E0,-6.737539768E-1,3.178515003E0
2.576397567E0,1.834771991E0,-2.321110964E0,-6.022350192E-1,3.019375992E0
2.581408977E0,1.573032022E0,-2.312174082E0,-5.485619903E-1,2.849824377E0
2.586420362E0,1.309401035E0,-2.310261011E0,-5.103769898E-1,2.704130485E0
2.591431737E0,1.074738026E0,-2.277127981E0,-4.587289989E-1,2.559454231E0
2.596443196E0,8.808209896E-1,-2.227149010E0,-4.103649855E-1,2.429904885E0
2.601454583E0,7.298250198E-1,-2.150758028E0,-3.461830020E-1,2.297443650E0
2.606465967E0,6.386060119E-1,-2.052747965E0,-2.038159966E-1,2.159428815E0
2.611477352E0,5.857440233E-1,-1.928344965E0,1.460000058E-4,2.015343739E0
2.616488984E0,5.714390278E-1,-1.803890944E0,2.205889970E-1,1.905052389E0
2.621500371E0,5.983110070E-1,-1.679417014E0,3.957419991E-1,1.826206258E0
2.626511775E0,6.402360201E-1,-1.554950953E0,5.522940159E-1,1.769972685E0
2.631523234E0,7.069060206E-1,-1.432911038E0,6.594330072E-1,1.728525978E0
2.636534631E0,7.865129709E-1,-1.313313961E0,7.389209867E-1,1.699823649E0
2.641546016E0,8.863210082E-1,-1.191377044E0,8.003979921E-1,1.686885039E0
2.646557400E0,9.262629747E-1,-1.056048036E0,7.706090212E-1,1.602198120E0
2.651568799E0,9.753360152E-1,-9.112730026E-1,7.459419966E-1,1.529093944E0
2.656580183E0,1.010221958E0,-7.593880296E-1,7.260360122E-1,1.457513937E0
2.661591807E0,1.045166969E0,-5.907859802E-1,7.174929976E-1,1.398641580E0
2.666603193E0,1.084763050E0,-4.390180111E-1,6.894639730E-1,1.358237188E0
2.671614663E0,1.121775031E0,-3.088540137E-1,6.536830068E-1,1.334567906E0
2.676626050E0,1.130334973E0,-2.098509967E-1,6.052950025E-1,1.299260033E0
2.681637434E0,1.143553972E0,-1.420200020E-1,5.417860150E-1,1.273348913E0
2.686648819E0,1.151674986E0,-9.346800297E-2,4.516769946E-1,1.240606162E0
2.691660204E0,1.115249991E0,-4.490600154E-2,3.770630062E-1,1.178123764E0
2.696671817E0,1.090967059E0,-1.731299981E-2,4.496470094E-1,1.180123425E0
2.701683204E0,1.034221053E0,-4.654899985E-2,5.138509870E-1,1.155778021E0
2.706694583E0,9.525820017E-1,-1.324409992E-1,6.163340211E-1,1.142287492E0
2.711705968E0,8.628770113E-1,-2.462179959E-1,7.257760167E-1,1.154093092E0
2.716717427E0,8.139920235E-1,-3.521209955E-1,8.002480268E-1,1.194558125E0
2.721729043E0,8.070740104E-1,-4.310570061E-1,8.666390181E-1,1.260254652E0
2.726740429E0,8.273259997E-1,-4.807820022E-1,8.927950263E-1,1.308702641E0
2.731751799E0,8.463010192E-1,-5.038449764E-1,8.896110058E-1,1.327212461E0
2.736763184E0,8.434889913E-1,-5.052180290E-1,8.488680124E-1,1.298959521E0
2.741774643E0,8.336849809E-1,-4.967719913E-1,8.345010281E-1,1.279923835E0
2.746785939E0,7.802910209E-1,-5.120360255E-1,8.154600263E-1,1.239358714E0
2.751797322E0,7.288720012E-1,-5.295140147E-1,7.966809869E-1,1.202638799E0
2.756808788E0,6.700559855E-1,-5.802530050E-1,7.896119952E-1,1.187078631E0
2.761820175E0,6.227220297E-1,-6.187440157E-1,7.987560034E-1,1.186860580E0
2.766831788E0,5.771669745E-1,-6.810449958E-1,7.843049765E-1,1.188309008E0
2.771843160E0,5.310379863E-1,-7.457789779E-1,7.399089932E-1,1.177137607E0
2.776854544E0,4.912889898E-1,-7.965450287E-1,6.505870223E-1,1.139786089E0
2.781865925E0,1.864300072E-1,-9.841589928E-1,5.488219857E-1,1.142160515E0
2.786877385E0,1.363950074E-1,-1.091228962E0,3.800100088E-1,1.163525613E0
2.791888771E0,4.008249938E-1,-8.544639945E-1,2.812950015E-1,9.848331186E-1
2.796900146E0,4.443030059E-1,-7.284870148E-1,1.915310025E-1,8.745185056E-1
2.801911530E0,4.477469921E-1,-6.247119904E-1,1.077819988E-1,7.761181605E-1
2.806922905E0,3.497000039E-1,-6.074960232E-1,6.165000051E-2,7.036634376E-1
2.811934518E0,1.600400060E-1,-6.883310080E-1,8.370900154E-2,7.116316301E-1
2.816945905E0,4.151299968E-2,-7.356849909E-1,8.857700229E-2,7.421601042E-1
2.821957271E0,-1.042700000E-2,-7.563980222E-1,1.467150003E-1,7.705660138E-1
2.826968730E0,-7.054000162E-3,-7.530289888E-1,1.802619994E-1,7.743363645E-1
2.831980122E0,1.974100061E-2,-7.257710099E-1,1.926719993E-1,7.511695982E-1
2.836991506E0,6.468500197E-2,-6.650890112E-1,2.009840012E-1,6.977980446E-1
2.842002891E0,9.497399628E-2,-5.496850014E-1,1.942050010E-1,5.906684714E-1
2.847014505E0,1.272809952E-1,-4.225580096E-1,1.839469969E-1,4.781131884E-1
2.852025891E0,1.687690020E-1,-2.430620044E-1,1.775279939E-1,3.450772416E-1
2.857037261E0,1.078590006E-1,-7.124900073E-2,1.371989995E-1,1.885034471E-1
2.862048645E0,-1.525990069E-1,-4.581800103E-2,9.038899839E-2,1.831827425E-1
2.867060126E0,-1.796299964E-1,1.620849967E-1,2.105299979E-1,3.207200677E-1
2.872071513E0,-4.464900121E-2,5.352979898E-1,2.872290015E-1,6.091288620E-1
2.877082897E0,-1.882000081E-2,8.294559717E-1,3.332160115E-1,8.940829446E-1
2.882094257E0,-7.452599704E-2,1.074942946E0,3.327940106E-1,1.127744792E0
2.887105870E0,-2.269160002E-1,1.191280007E0,3.199779987E-1,1.254202873E0
2.892117257E0,-6.031150222E-1,1.063698053E0,2.537719905E-1,1.248840063E0
2.897128646E0,-8.532419801E-1,9.381179810E-1,1.796299964E-1,1.280763116E0
2.902140106E0,-1.012354970E0,8.320860267E-1,1.637919992E-1,1.320627714E0
2.907151493E0,-1.104130030E0,7.462049723E-1,2.279440016E-1,1.351992400E0
2.912162882E0,-1.130602002E0,6.880379915E-1,3.563359976E-1,1.370632156E0
2.917174267E0,-1.103108048E0,6.531670094E-1,5.547429919E-1,1.396858724E0
2.922185652E0,-1.055971026E0,6.673150063E-1,6.919389963E-1,1.427992892E0
2.927197260E0,-9.713230133E-1,7.275990248E-1,7.915390134E-1,1.448931588E0
2.932208647E0,-8.289819956E-1,9.224479795E-1,9.329370260E-1,1.551931995E0
2.937220106E0,-5.416970253E-1,1.370663047E0,1.099553943E0,1.838796271E0
2.942231416E0,-1.049600020E-1,2.105647087E0,1.157755017E0,2.405236566E0
2.947242798E0,3.876920044E-1,3.043601036E0,8.947010040E-1,3.195982203E0
2.952254260E0,6.534050107E-1,3.871087074E0,3.461079895E-1,3.941071426E0
2.957265875E0,7.272130251E-1,4.382312775E0,-4.521929920E-1,4.465196809E0
2.962277252E0,1.237663031E0,4.948156834E0,-1.268054962E0,5.255856659E0
2.967288637E0,2.178196907E0,5.748038769E0,-2.007926941E0,6.466549470E0
2.972300036E0,2.837461948E0,6.229316235E0,-2.784684896E0,7.389860691E0
2.977311421E0,2.989842892E0,6.241569042E0,-3.535047054E0,7.771287043E0
2.982322880E0,2.614804029E0,5.873832226E0,-4.138950825E0,7.646569104E0
2.987334262E0,1.927979946E0,5.341875076E0,-4.399462223E0,7.183871091E0
2.992345647E0,1.214048028E0,4.696158886E0,-4.336537838E0,6.506410786E0
2.997357270E0,5.375109911E-1,3.912678003E0,-4.138863087E0,5.720852635E0
3.002368657E0,-2.825500071E-2,3.034327984E0,-3.954000950E0,4.984181795E0
3.007380050E0,-4.886389971E-1,2.130218983E0,-3.778408051E0,4.364970605E0
3.012391435E0,-8.370410204E-1,1.243234992E0,-3.623254061E0,3.920999988E0
3.017402895E0,-1.120859027E0,3.461959958E-1,-3.393632889E0,3.590671359E0
3.022414291E0,-1.416630030E0,-4.721260071E-1,-3.145057917E0,3.481541743E0
3.027425676E0,-1.741515994E0,-1.180160999E0,-2.922173023E0,3.600660095E0
3.032437045E0,-1.950531006E0,-1.687548041E0,-2.549355984E0,3.626514239E0
3.037448430E0,-2.110393047E0,-2.001724958E0,-2.080579996E0,3.576237512E0
3.042459815E0,-2.259138107E0,-2.175632954E0,-1.576926947E0,3.510524510E0
3.047471419E0,-2.355618954E0,-2.202301025E0,-1.051913023E0,3.391989309E0
3.052482806E0,-2.380369902E0,-2.151294947E0,-6.748059988E-1,3.278657340E0
3.057494270E0,-2.325839043E0,-2.036994934E0,-4.885819852E-1,3.130109897E0
3.062505657E0,-2.206374884E0,-1.859233022E0,-4.747639894E-1,2.924079069E0
3.067517041E0,-1.933735013E0,-1.608147979E0,-5.938169956E-1,2.584200001E0
3.072528416E0,-1.544178963E0,-1.314461946E0,-8.185759783E-1,2.186862024E0
3.077540030E0,-9.233430028E-1,-9.467170238E-1,-1.090664983E0,1.714171966E0
3.082551440E0,4.433900118E-2,-4.178070128E-1,-1.278450966E0,1.345721189E0
3.087562825E0,9.750390053E-1,1.370919943E-1,-1.340160012E0,1.662986511E0
3.092574265E0,1.619459987E0,6.008679867E-1,-1.487671018E0,2.279661826E0
3.097585652E0,2.906776905E0,1.233822942E0,-1.700248003E0,3.586434762E0
3.102597037E0,3.832725048E0,1.257217050E0,-1.884449005E0,4.452137021E0
3.107608421E0,4.576475143E0,1.798105001E0,-1.736379027E0,5.214625438E0
3.112619806E0,5.766572952E0,2.554779053E0,-1.638025999E0,6.516393849E0
3.117631414E0,6.864587784E0,3.232763052E0,-1.619899988E0,7.758698239E0
3.122642801E0,6.630580902E0,3.114032984E0,-1.712502956E0,7.522929675E0
3.127654180E0,5.611577034E0,2.650866985E0,-1.789049983E0,6.458915731E0
3.132665565E0,4.926146984E0,2.228486061E0,-1.899595022E0,5.730753483E0
3.137677025E0,4.315684795E0,1.877992988E0,-1.948348999E0,5.093923511E0
3.142688411E0,3.665473938E0,1.525231957E0,-1.952108026E0,4.424110923E0
3.147699796E0,2.927606106E0,1.134294033E0,-1.913130045E0,3.676624407E0
3.152711181E0,2.042778015E0,6.716020107E-1,-1.771366954E0,2.785988544E0
3.157722565E0,1.164286017E0,1.625380069E-1,-1.594531059E0,1.981037565E0
3.162734179E0,3.360880017E-1,-3.665330112E-1,-1.412333965E0,1.497327226E0
3.167745642E0,-4.019970000E-1,-8.745269775E-1,-1.245566964E0,1.574114381E0
3.172756950E0,-1.053869009E0,-1.344148993E0,-1.093219995E0,2.027931548E0
3.177768409E0,-1.562695026E0,-1.763481975E0,-9.119889736E-1,2.526580359E0
3.182779810E0,-1.955255032E0,-2.132607937E0,-7.877249718E-1,2.998591250E0
3.187791195E0,-2.265482903E0,-2.386974096E0,-5.957649946E-1,3.344397412E0
3.192802579E0,-2.438596964E0,-2.651093006E0,-6.086130142E-1,3.653143726E0
3.197814169E0,-2.515728951E0,-2.817280054E0,-6.134219766E-1,3.826518728E0
3.202825555E0,-2.477895021E0,-2.914241076E0,-6.485580206E-1,3.879870138E0
3.207836916E0,-2.310852051E0,-2.913281918E0,-6.900960207E-1,3.781994348E0
3.212848301E0,-2.043159008E0,-2.831151962E0,-7.500249743E-1,3.571058334E0
3.217859760E0,-1.633941054E0,-2.622415066E0,-7.708150148E-1,3.184490530E0
3.222871147E0,-1.216650963E0,-2.375626087E0,-7.738919854E-1,2.778983209E0
3.227882545E0,-8.003550172E-1,-2.131470919E0,-7.280920148E-1,2.390367004E0
3.232893930E0,-3.988380134E-1,-1.935399055E0,-6.837120056E-1,2.091005349E0
3.237905543E0,2.639000071E-3,-1.777812004E0,-6.719089746E-1,1.900548383E0
3.242916916E0,3.902159929E-1,-1.634786963E0,-6.950100064E-1,1.818745679E0
3.247928301E0,7.163739800E-1,-1.535002947E0,-7.914040089E-1,1.869691427E0
3.252939769E0,9.788579941E-1,-1.478441954E0,-9.515839815E-1,2.012328417E0
3.257951156E0,1.161026001E0,-1.462641001E0,-1.202164054E0,2.220922890E0
3.262962530E0,1.248363018E0,-1.473184943E0,-1.493142962E0,2.440934249E0
3.267973915E0,1.262269974E0,-1.462106943E0,-1.817832947E0,2.652470324E0
3.272985300E0,1.236111045E0,-1.434069991E0,-2.069153070E0,2.804625052E0
3.277996913E0,1.155679941E0,-1.369811058E0,-2.190161943E0,2.829980177E0
3.283008300E0,1.009019017E0,-1.285992026E0,-2.186055899E0,2.729603499E0
3.288019698E0,7.820780277E-1,-1.201683998E0,-2.104975939E0,2.546883228E0
3.293031083E0,4.462339878E-1,-1.112072945E0,-1.966125965E0,2.302494803E0
3.298042543E0,9.238199890E-2,-1.026788950E0,-1.824288964E0,2.095437951E0
3.303053929E0,-2.578519881E-1,-9.003589749E-1,-1.684193969E0,1.927081538E0
3.308065314E0,-5.893729925E-1,-7.965360284E-1,-1.513406992E0,1.808930870E0
3.313076698E0,-9.209640026E-1,-7.194709778E-1,-1.390622973E0,1.816492619E0
3.318088083E0,-1.195067048E0,-6.599180102E-1,-1.307000995E0,1.889954663E0
3.323099696E0,-1.379065990E0,-5.898100138E-1,-1.312293053E0,1.992940520E0
3.328111160E0,-1.494094968E0,-5.791019797E-1,-1.410967946E0,2.135066608E0
3.333122550E0,-1.518990040E0,-5.756570101E-1,-1.586588979E0,2.270677503E0
3.338133934E0,-1.498134971E0,-6.247050166E-1,-1.737619042E0,2.377810902E0
3.343145305E0,-1.423632026E0,-6.972219944E-1,-1.825603008E0,2.417782661E0
3.348156689E0,-1.361951947E0,-8.328499794E-1,-1.755401969E0,2.372759631E0
3.353168059E0,-1.259899020E0,-9.566829801E-1,-1.513257027E0,2.189185852E0
3.358179672E0,-1.117162943E0,-1.047127962E0,-1.199635029E0,1.945161745E0
3.363191064E0,-9.707540274E-1,-1.107316971E0,-8.012229800E-1,1.676446396E0
3.368202449E0,-8.248839974E-1,-1.167353988E0,-3.124670088E-1,1.463142021E0
3.373213903E0,-6.676139832E-1,-1.217818022E0,1.310299933E-1,1.394975994E0
3.378225290E0,-4.894030094E-1,-1.246881008E0,4.988070130E-1,1.429348100E0
3.383236699E0,-3.196640015E-1,-1.248227954E0,7.693459988E-1,1.500716950E0
3.388248083E0,-1.725340039E-1,-1.248674989E0,1.002943993E0,1.610855010E0
3.393259697E0,-1.747399941E-2,-1.179334044E0,1.204254031E0,1.685633976E0
3.398271112E0,1.267430037E-1,-1.090862989E0,1.356340051E0,1.745194598E0
3.403282497E0,2.767600119E-1,-9.720339775E-1,1.421659946E0,1.744294459E0
3.408293881E0,3.722380102E-1,-8.472020030E-1,1.400475025E0,1.678583530E0
3.413305350E0,4.148400128E-1,-7.522869706E-1,1.324579954E0,1.578778001E0
3.418316737E0,4.225170016E-1,-6.423889995E-1,1.143911958E0,1.378302873E0
3.423328346E0,1.477465987E0,-5.591909885E-1,7.430369854E-1,1.745767529E0
3.428339733E0,3.509545088E0,-1.332329959E-1,1.492244005E0,3.815946793E0
3.433351117E0,1.943704009E0,-4.001820087E-1,8.614330292E-1,2.163376476E0
3.438362526E0,6.910489798E-1,-6.239519715E-1,6.713430285E-1,1.147852873E0
3.443373911E0,7.732900232E-2,-5.127009749E-1,9.662659764E-1,1.096591082E0
3.448385295E0,-2.198469937E-1,-5.560160279E-1,1.213351011E0,1.352666700E0
3.453396675E0,-2.417739928E-1,-7.799029946E-1,1.239804983E0,1.484526773E0
3.458408134E0,-4.248880148E-1,-8.770760298E-1,1.396100044E0,1.702611970E0
3.463419525E0,-5.208150148E-1,-9.476780295E-1,1.367504001E0,1.743390122E0
3.468430910E0,-5.093320012E-1,-9.833580256E-1,1.278146982E0,1.691174681E0
3.473442523E0,-5.024319887E-1,-1.049690962E0,1.068866014E0,1.580115051E0
3.478453910E0,-4.374940097E-1,-1.132462025E0,8.749960065E-1,1.496492318E0
3.483465294E0,-4.256750047E-1,-1.124300957E0,6.786739826E-1,1.380525344E0
3.488476764E0,-3.516089916E-1,-1.121094942E0,5.029680133E-1,1.278068689E0
3.493488150E0,-2.491939962E-1,-1.125383019E0,3.166840076E-1,1.195354905E0
3.498499549E0,-1.789489985E-1,-1.143723011E0,1.712010056E-1,1.170228548E0
3.503510934E0,-1.672029942E-1,-1.136260033E0,1.384100039E-2,1.148579678E0
3.508522328E0,-2.011460066E-1,-1.121832967E0,-1.477349997E-1,1.149258261E0
3.513533942E0,-3.064819872E-1,-1.061995029E0,-2.538709939E-1,1.134114250E0
3.518545328E0,-4.420340061E-1,-1.018836975E0,-4.075500071E-1,1.183013040E0
3.523556708E0,-5.619239807E-1,-1.107100964E0,-6.113089919E-1,1.383882144E0
3.528568168E0,-7.232869864E-1,-1.137616038E0,-7.648599744E-1,1.549943578E0
3.533579554E0,-8.852999806E-1,-1.136590958E0,-8.062459826E-1,1.650947499E0
3.538590949E0,-1.122794032E0,-1.040735006E0,-7.532680035E-1,1.706226385E0
3.543602333E0,-1.394760013E0,-7.654320002E-1,-5.925089717E-1,1.697736293E0
3.548613727E0,-1.596019983E0,-5.484399796E-1,-4.923439920E-1,1.757972925E0
3.553625112E0,-1.674316049E0,-3.114219904E-1,-3.415830135E-1,1.736950443E0
3.558636725E0,-1.634345055E0,-2.378899977E-2,-1.108879969E-1,1.638275258E0
3.563648184E0,-1.535696030E0,2.944949865E-1,1.189910024E-1,1.568199111E0
3.568659568E0,-1.323150992E0,5.109549761E-1,3.008449972E-1,1.449934912E0
3.573670953E0,-9.240300059E-1,6.346529722E-1,5.070610046E-1,1.230336015E0
3.578682347E0,-5.496709943E-1,7.317429781E-1,6.942250133E-1,1.148709866E0
3.583693961E0,-2.486039996E-1,7.564769983E-1,9.012629986E-1,1.202637265E0
3.588705117E0,8.970000199E-4,7.496510148E-1,1.099220037E0,1.330511984E0
3.593716716E0,3.068560064E-1,6.922159791E-1,1.235412955E0,1.448988868E0
3.598728103E0,5.604550242E-1,5.816450119E-1,1.298388004E0,1.529127910E0
3.603739467E0,6.541879773E-1,3.931539953E-1,1.373613954E0,1.571415689E0
3.608750927E0,6.438760161E-1,1.611910015E-1,1.443806052E0,1.589067267E0
3.613762300E0,5.994870067E-1,-2.276499942E-2,1.565242052E0,1.676271338E0
3.618773684E0,5.362629890E-1,-2.896690071E-1,1.686481953E0,1.793239388E0
3.623785298E0,4.597130120E-1,-6.006709933E-1,1.813809037E0,1.965208620E0
3.628796453E0,3.999159932E-1,-7.742149830E-1,1.993342042E0,2.175489402E0
3.633808062E0,3.631739914E-1,-8.684790134E-1,2.155344009E0,2.351947904E0
3.638819448E0,3.071720004E-1,-9.082139730E-1,2.250351906E0,2.446076646E0
3.643830833E0,2.044219971E-1,-8.701699972E-1,2.309880018E0,2.476798311E0
3.648842213E0,1.466049999E-1,-6.493840218E-1,2.234936953E0,2.331981092E0
3.653853597E0,1.694889963E-1,-2.387100011E-1,2.082710981E0,2.103186634E0
3.658865057E0,2.094399929E-1,4.467560053E-1,1.837813020E0,1.902895881E0
3.663876672E0,2.596170008E-1,1.383270025E0,1.485285044E0,2.046193689E0
3.668888045E0,3.447810113E-1,2.547065020E0,1.039633036E0,2.772589225E0
3.673899430E0,4.564889967E-1,3.849977016E0,5.580599904E-1,3.916903903E0
3.678910814E0,6.225730181E-1,5.127352238E0,-2.657699957E-2,5.165079328E0
3.683922199E0,7.530440092E-1,6.187994957E0,-8.864060044E-1,6.296353903E0
3.688933658E0,8.215219975E-1,6.799838066E0,-1.956689954E0,7.123295003E0
3.693945045E0,7.550169826E-1,6.816768169E0,-3.077198029E0,7.517148836E0
3.698956415E0,4.745700061E-1,6.291110039E0,-4.073701859E0,7.509882092E0
3.703968028E0,2.030799910E-2,5.282367229E0,-4.849123001E0,7.170621301E0
3.708979415E0,-3.188810050E-1,4.125419140E0,-5.283288956E0,6.710730986E0
3.713990799E0,-3.850010037E-1,3.028458118E0,-5.208281994E0,6.037051074E0
3.719002194E0,-1.961970031E-1,2.130264044E0,-4.496232033E0,4.979218880E0
3.724013579E0,2.576670051E-1,1.473222017E0,-3.176613092E0,3.511074784E0
3.729025038E0,7.811579704E-1,9.119129777E-1,-1.747159958E0,2.119990795E0
3.734036425E0,1.307160974E0,3.968290091E-1,-4.980069995E-1,1.454013083E0
3.739048038E0,1.796455026E0,-5.779200047E-2,4.689539969E-1,1.857554421E0
3.744059203E0,2.327724934E0,-3.888129890E-1,1.087319016E0,2.598411351E0
3.749070816E0,2.871085882E0,-5.320540071E-1,1.461609960E0,3.265351326E0
3.754082189E0,3.419183969E0,-4.693320096E-1,1.516682029E0,3.769803168E0
3.759093574E0,3.934964895E0,-2.206510007E-1,1.184780002E0,4.115378384E0
3.764105033E0,4.323669910E0,7.507599890E-2,4.089860022E-1,4.343619165E0
3.769116405E0,4.657566071E0,3.105370104E-1,-7.581310272E-1,4.729071536E0
3.774127789E0,4.967915058E0,4.840889871E-1,-2.079749107E0,5.407391101E0
3.779139174E0,5.100183964E0,5.588830113E-1,-3.335136890E0,6.119425199E0
3.784150579E0,5.105595112E0,5.749899745E-1,-4.407176971E0,6.769115435E0
3.789162192E0,4.988162994E0,6.002950072E-1,-5.373595238E0,7.356469937E0
3.794173579E0,4.541071892E0,6.236510277E-1,-6.130259991E0,7.654434145E0
3.799184967E0,3.786887884E0,6.979349852E-1,-6.693115234E0,7.721750102E0
3.804196352E0,2.836395979E0,8.471969962E-1,-7.008695126E0,7.608199016E0
3.809207811E0,1.846119046E0,1.085886002E0,-7.049758911E0,7.367930825E0
3.814219198E0,7.551559806E-1,1.418822050E0,-6.731389046E0,6.920615222E0
3.819230574E0,-4.464380145E-1,1.790907025E0,-6.080253124E0,6.354221662E0
3.824241958E0,-1.617522955E0,2.115922928E0,-5.409896851E0,6.029966358E0
3.829253577E0,-2.566694975E0,2.374619961E0,-4.933184147E0,6.046738698E0
3.834264963E0,-3.440085888E0,2.564584017E0,-4.607341766E0,6.295941570E0
3.839276357E0,-4.238284111E0,2.625897884E0,-4.320217133E0,6.597171210E0
3.844287742E0,-4.717988014E0,2.618215084E0,-4.040854931E0,6.741140089E0
3.849299201E0,-4.379389763E0,2.646713018E0,-3.740469933E0,6.338395681E0
3.854310599E0,-3.946770906E0,2.570296049E0,-3.457151890E0,5.842544100E0
3.859321983E0,-3.651891947E0,2.357831955E0,-3.142637014E0,5.363940130E0
3.864333368E0,-3.298698902E0,2.040246964E0,-2.734069109E0,4.745435282E0
3.869344995E0,-2.858406067E0,1.681959033E0,-2.285510063E0,4.027781980E0
3.874356382E0,-2.349792957E0,1.268425941E0,-1.812561035E0,3.227353222E0
3.879367757E0,-1.834591031E0,8.377389908E-1,-1.313863039E0,2.407024502E0
3.884379141E0,-1.321933985E0,4.001759887E-1,-7.769230008E-1,1.584695438E0
3.889390601E0,-9.036830068E-1,-4.365099967E-2,-3.339700103E-1,9.644088107E-1
3.894401988E0,-5.240669847E-1,-4.802719951E-1,-2.862700075E-2,7.114259616E-1
3.899413372E0,-1.060549989E-1,-8.462949991E-1,1.643009931E-1,8.685952479E-1
3.904424986E0,3.348959982E-1,-1.201122999E0,3.046540022E-1,1.283614370E0
3.909436363E0,8.307290077E-1,-1.478310943E0,2.329819947E-1,1.711664260E0
3.914447517E0,1.424970031E0,-1.680032015E0,-2.007599920E-2,2.203054744E0
3.919459130E0,2.039241076E0,-1.808346033E0,-3.788279891E-1,2.751750386E0
3.924470512E0,2.607038021E0,-1.929898024E0,-7.653200030E-1,3.332696856E0
3.929481972E0,3.071237087E0,-2.073028088E0,-1.166576982E0,3.884693624E0
3.934493587E0,3.468091965E0,-2.184756041E0,-1.574167013E0,4.390765607E0
3.939504757E0,3.740192890E0,-2.312686920E0,-1.931854963E0,4.803085180E0
3.944516370E0,3.885065079E0,-2.459029913E0,-2.202299118E0,5.098105549E0
3.949527733E0,3.907219887E0,-2.595004082E0,-2.378951073E0,5.259260560E0
3.954539118E0,3.796801090E0,-2.699064016E0,-2.409532070E0,5.244662990E0
3.959550502E0,3.429028988E0,-2.831104040E0,-2.298863888E0,5.005813127E0
3.964561902E0,2.805730104E0,-3.031996965E0,-2.037013054E0,4.605925444E0
3.969573361E0,2.007206917E0,-3.287703037E0,-1.625751972E0,4.181021447E0
3.974584748E0,1.461164951E0,-3.320923090E0,-1.368181944E0,3.877557868E0
3.979596133E0,1.256222010E0,-3.024039984E0,-1.271083951E0,3.512629495E0
3.984607517E0,1.072548032E0,-2.676881075E0,-1.224406004E0,3.132925411E0
3.989619131E0,6.400859952E-1,-2.485188961E0,-1.168295026E0,2.819714085E0
3.994630516E0,1.332399994E-1,-2.372453928E0,-1.112208009E0,2.623603856E0
3.999641901E0,-2.714830041E-1,-2.245536089E0,-1.003083944E0,2.474330768E0
4.004653281E0,-5.767840147E-1,-2.128454924E0,-8.861209750E-1,2.376596420E0
4.009664741E0,-7.925180197E-1,-2.033313990E0,-8.684899807E-1,2.348771049E0
4.014676142E0,-8.543159962E-1,-1.905078053E0,-9.503189921E-1,2.293966957E0
4.019687526E0,-7.407079935E-1,-1.679075956E0,-1.060119033E0,2.119385940E0
4.024698911E0,-4.179430008E-1,-1.345657945E0,-1.183676004E0,1.840260998E0
4.029710538E0,-6.504199654E-2,-9.907829762E-1,-1.381345034E0,1.701174732E0
4.034721925E0,3.209460080E-1,-6.047639847E-1,-1.528169990E0,1.674529586E0
4.039733385E0,6.748459935E-1,-1.895119995E-1,-1.662284970E0,1.804029721E0
4.044744767E0,8.830990195E-1,1.539950073E-1,-1.661887050E0,1.888239102E0
4.049756152E0,9.647880197E-1,4.315879941E-1,-1.596199989E0,1.914402916E0
4.054767535E0,1.000265002E0,7.298430204E-1,-1.469612002E0,1.921707664E0
4.059778920E0,9.934279919E-1,1.060621977E0,-1.381350040E0,2.004980321E0
4.064790305E0,7.944239974E-1,1.092082977E0,-1.246688962E0,1.837930381E0
4.069801918E0,2.814000007E-3,1.142222047E0,-1.402300954E0,1.808625746E0
4.074813305E0,8.346130252E-1,1.817242980E0,-1.563426018E0,2.538356134E0
4.079824694E0,9.303489923E-1,1.987954021E0,-1.251433969E0,2.526578202E0
4.084836154E0,6.425549984E-1,2.013293982E0,-1.047270060E0,2.358602162E0
4.089847535E0,2.365359962E-1,1.912271023E0,-7.612270117E-1,2.071761643E0
4.094858920E0,3.018699959E-2,1.835536957E0,-5.723479986E-1,1.922937702E0
4.099870291E0,-8.882000297E-2,1.687340975E0,-4.037410021E-1,1.737243608E0
4.104881675E0,-1.897040009E-1,1.415022969E0,-1.858139932E-1,1.439723741E0
4.109893289E0,-3.323329985E-1,1.085525990E0,-1.148699969E-2,1.135316629E0
4.114904675E0,-3.538120091E-1,7.713009715E-1,1.029469967E-1,8.548018546E-1
4.119916135E0,-3.585389853E-1,4.195899963E-1,1.684059948E-1,5.770325364E-1
4.124927517E0,-4.123879969E-1,7.095500082E-2,1.697410047E-1,4.515644813E-1
4.129938901E0,-3.800030053E-1,-2.221319973E-1,2.040230036E-1,4.851497648E-1
4.134950515E0,-2.923290133E-1,-5.123289824E-1,2.676320076E-1,6.477377013E-1
4.139961906E0,-2.139800042E-1,-7.921450138E-1,3.803859949E-1,9.044195211E-1
4.144973291E0,-1.241500005E-1,-1.051969051E0,5.012570024E-1,1.171883394E0
4.149984704E0,-3.731599823E-2,-1.251746058E0,6.283469796E-1,1.401099784E0
4.154996089E0,4.918700084E-2,-1.444404960E0,7.701699734E-1,1.637646737E0
4.160007474E0,1.427710056E-1,-1.610844016E0,8.744090199E-1,1.838421371E0
4.165018858E0,2.795709968E-1,-1.746304989E0,9.485650063E-1,2.006867367E0
4.170030303E0,4.217770100E-1,-1.841195941E0,9.975370169E-1,2.136112928E0
4.175041918E0,4.979400039E-1,-1.924213052E0,1.030941963E0,2.239058161E0
4.180053069E0,5.225769877E-1,-1.990589023E0,1.065660000E0,2.317576881E0
4.185064683E0,5.747320056E-1,-2.025962114E0,1.084962964E0,2.368962642E0
4.190076084E0,5.637120008E-1,-2.073432922E0,1.139310956E0,2.432061833E0
4.195087469E0,4.990890026E-1,-2.121083975E0,1.233741999E0,2.504038015E0
4.200098853E0,4.454340041E-1,-2.140274048E0,1.344710946E0,2.566599303E0
4.205110313E0,4.122880101E-1,-2.152645111E0,1.389006972E0,2.594841565E0
4.210121623E0,4.019959867E-1,-2.112776995E0,1.374042988E0,2.552140579E0
4.215133082E0,4.146670103E-1,-2.078107119E0,1.304734945E0,2.488535956E0
4.220144464E0,4.238080084E-1,-2.048698902E0,1.253190994E0,2.438702132E0
4.225156077E0,4.386990070E-1,-2.024558067E0,1.219321012E0,2.403754546E0
4.230167454E0,4.709169865E-1,-2.008086920E0,1.138494015E0,2.355916914E0
4.235178839E0,5.079759955E-1,-1.982553959E0,1.034558058E0,2.293222664E0
4.240190223E0,5.419269800E-1,-1.959931970E0,8.546059728E-1,2.205758270E0
4.245201683E0,6.007090211E-1,-1.880357027E0,5.813549757E-1,2.057806474E0
4.250213069E0,6.667540073E-1,-1.736570001E0,2.737329900E-1,1.880203719E0
4.255224439E0,7.465869784E-1,-1.557163000E0,-6.926500052E-2,1.728278440E0
4.260236052E0,8.111789823E-1,-1.315660000E0,-3.578810096E-1,1.586521791E0
4.265247439E0,8.385329843E-1,-1.026296020E0,-5.955299735E-1,1.452954588E0
4.270258819E0,9.008349776E-1,-6.941660047E-1,-6.380800009E-1,1.304038414E0
4.275270203E0,9.230239987E-1,-2.714489996E-1,-7.761420012E-1,1.236144922E0
4.280281603E0,9.091479778E-1,2.162500024E-1,-8.313869834E-1,1.250807110E0
4.285292987E0,8.723350167E-1,7.381590009E-1,-8.581299782E-1,1.429067581E0
4.290304461E0,8.604440093E-1,1.297543049E0,-8.689709902E-1,1.783000964E0
4.295315848E0,8.660910130E-1,1.809646964E0,-7.694709897E-1,2.148725525E0
4.300327232E0,8.542990088E-1,2.281711102E0,-6.217929721E-1,2.514489779E0
4.305338846E0,1.039175987E0,2.773614883E0,-4.282230139E-1,2.992691298E0
4.310350232E0,1.853137016E0,3.481652975E0,-2.053409964E-1,3.949454287E0
4.315361617E0,1.954200983E0,3.834001064E0,-1.512469947E-1,4.305965780E0
4.320372992E0,8.320199847E-1,3.428601027E0,-1.726419926E-1,3.532331739E0
4.325384376E0,6.720839739E-1,3.375633955E0,-1.471800059E-1,3.445034604E0
4.330395761E0,4.337239861E-1,3.189342976E0,-2.590200007E-1,3.229104593E0
4.335407191E0,1.527159959E-1,3.109030962E0,-1.707690060E-1,3.117460144E0
4.340418807E0,-4.774819911E-1,3.168140888E0,-1.260450035E-1,3.206398772E0
4.345429954E0,-7.804390192E-1,3.186923027E0,8.508210182E-1,3.389610575E0
4.350441336E0,-1.206580997E0,3.485599041E0,1.013190031E0,3.825152600E0
4.355452928E0,-1.657351971E0,3.750319958E0,1.189092994E0,4.269151846E0
4.360464314E0,-2.120815992E0,3.892088890E0,9.648249745E-1,4.536199250E0
4.365475783E0,-2.664423943E0,3.786216021E0,1.118659973E-1,4.631101457E0
4.370487169E0,-3.139030933E0,3.492503881E0,-1.154919982E0,4.835797631E0
4.375498554E0,-3.062839985E0,3.307929039E0,-2.512206078E0,5.160868403E0
4.380509939E0,-2.745407104E0,3.194623947E0,-3.541722059E0,5.503333306E0
4.385521552E0,-2.256438971E0,3.212847948E0,-4.052402973E0,5.642329184E0
4.390532939E0,-1.703667045E0,3.336615086E0,-4.165935993E0,5.602722939E0
4.395544323E0,-1.158277988E0,3.487245083E0,-4.008339882E0,5.437763766E0
4.400555708E0,-7.078199983E-1,3.609905958E0,-3.623585939E0,5.163603900E0
4.405567064E0,-4.421280026E-1,3.659135103E0,-3.130966902E0,4.836083189E0
4.410578523E0,-2.760649920E-1,3.582233906E0,-2.620573044E0,4.447023129E0
4.415589901E0,-1.989119947E-1,3.362327099E0,-2.383244038E0,4.126095205E0
4.420601285E0,-6.811890006E-1,3.044816017E0,-3.198415041E0,4.468196706E0
4.425612670E0,-4.219630063E-1,2.215596914E0,-3.021950006E0,3.770822763E0
4.430624273E0,-1.039469987E-1,1.551795959E0,-3.552545071E0,3.878073253E0
4.435635660E0,-2.209260017E-1,6.239259839E-1,-3.719340086E0,3.777774822E0
4.440647120E0,-6.715800166E-1,-3.171139956E-1,-4.137804985E0,4.203928056E0
4.445658415E0,-6.875810027E-1,-9.432229996E-1,-3.847942114E0,4.021081418E0
4.450669875E0,-6.578779817E-1,-1.299224973E0,-3.329109907E0,3.633698081E0
4.455681276E0,-8.270210028E-1,-1.543022037E0,-2.588057995E0,3.124567959E0
4.460692661E0,-1.381715059E0,-1.758211017E0,-1.907652020E0,2.939316028E0
4.465704036E0,-2.091494083E0,-1.973497033E0,-1.438567996E0,3.215356266E0
4.470715420E0,-2.593034983E0,-2.131606102E0,-1.050786972E0,3.517346764E0
4.475727034E0,-2.869560003E0,-2.218297005E0,-7.411890030E-1,3.701969388E0
4.480738420E0,-3.100076914E0,-2.228771925E0,-5.169749856E-1,3.852942291E0
4.485749805E0,-3.416014910E0,-2.193983078E0,-4.652360082E-1,4.086461079E0
4.490761260E0,-3.609987020E0,-2.106595039E0,-4.435980022E-1,4.203156925E0
4.495772646E0,-3.402318001E0,-1.831390023E0,-3.220309913E-1,3.877300756E0
4.500784031E0,-3.027952909E0,-1.418807030E0,-2.232680023E-1,3.351322248E0
4.505795644E0,-2.472027063E0,-8.938909769E-1,-9.691800177E-2,2.630466115E0
4.510807031E0,-1.867025971E0,-3.653140068E-1,-3.528000088E-3,1.902433376E0
4.515818415E0,-1.313123941E0,8.510299772E-2,6.287100166E-2,1.317379888E0
4.520829824E0,-7.196890116E-1,5.045610070E-1,7.537999749E-2,8.821656461E-1
4.525841209E0,-2.260479927E-1,8.168780208E-1,1.213639975E-1,8.562222934E-1
4.530852692E0,3.870499879E-2,8.908020258E-1,7.096400112E-2,8.944619699E-1
4.535864308E0,1.667879969E-1,7.721440196E-1,-6.378000136E-3,7.899780388E-1
4.540875694E0,3.167159855E-1,6.330059767E-1,-9.860000014E-2,7.146520426E-1
4.545886858E0,6.568869948E-1,6.263080239E-1,-1.051369980E-1,9.136826874E-1
4.550898472E0,8.663880229E-1,6.856769919E-1,-9.142199904E-2,1.108665470E0
4.555909872E0,7.337149978E-1,6.566349864E-1,-1.170509979E-1,9.915685248E-1
4.560921257E0,4.081479907E-1,4.675740004E-1,-2.539629936E-1,6.706022892E-1
4.565932641E0,2.854399979E-1,2.614940107E-1,-3.968920112E-1,5.544171521E-1
4.570944026E0,2.763789892E-1,4.291399941E-2,-5.456900001E-1,6.131920851E-1
4.575955486E0,2.019499987E-1,-2.499900013E-1,-6.628320217E-1,7.366309061E-1
4.580966863E0,8.796200156E-2,-5.667759776E-1,-7.627069950E-1,9.543030351E-1
4.585978248E0,-2.658000030E-2,-8.592799902E-1,-8.039270043E-1,1.177016239E0
4.590989861E0,-1.517339945E-1,-1.141756058E0,-8.495560288E-1,1.431214710E0
4.596001248E0,-2.766239941E-1,-1.412250996E0,-9.020900130E-1,1.698452266E0
4.601012707E0,-3.985559940E-1,-1.670719028E0,-9.377539754E-1,1.956918871E0
4.606024031E0,-5.128269792E-1,-1.924342990E0,-9.829249978E-1,2.220862221E0
4.611035491E0,-6.028419733E-1,-2.134794950E0,-1.047615051E0,2.453215282E0
4.616046800E0,-6.472240090E-1,-2.352310896E0,-1.048338056E0,2.655424288E0
4.621058260E0,-6.724129915E-1,-2.524194956E0,-1.114827037E0,2.840165264E0
4.626069662E0,-6.882569790E-1,-2.705495119E0,-1.046201944E0,2.981264835E0
4.631081046E0,-6.637600064E-1,-2.795732975E0,-9.763829708E-1,3.034802122E0
4.636092674E0,-5.437710285E-1,-2.830815077E0,-7.927809954E-1,2.989599076E0
4.641104060E0,-3.971860111E-1,-2.813141108E0,-6.146129966E-1,2.906762590E0
4.646115434E0,-2.881860137E-1,-2.809734106E0,-4.462420046E-1,2.859508498E0
4.651126893E0,-2.882489860E-1,-2.834956884E0,-2.324019969E-1,2.859034575E0
4.656138280E0,-3.208619952E-1,-2.869687080E0,-9.973099828E-2,2.889291026E0
4.661149665E0,-4.027549922E-1,-2.913913965E0,-1.006400026E-2,2.941633469E0
4.666161049E0,-4.264200032E-1,-2.895865917E0,2.940100059E-2,2.927240654E0
4.671172654E0,-3.846369982E-1,-2.765288115E0,6.654699892E-2,2.792703436E0
4.676184040E0,-3.847039938E-1,-2.656145096E0,8.216299862E-2,2.685117258E0
4.681195439E0,-4.174009860E-1,-2.570868015E0,1.411900017E-2,2.604570076E0
4.686206899E0,-4.686760008E-1,-2.468780994E0,-5.639399961E-2,2.513506928E0
4.691218285E0,-5.316259861E-1,-2.328368902E0,-7.676099986E-2,2.389523004E0
4.696229899E0,-6.114289761E-1,-2.154436111E0,-9.492100030E-2,2.241528574E0
4.701241054E0,-7.394610047E-1,-1.975716949E0,-1.563629955E-1,2.115350899E0
4.706252437E0,-8.225899935E-1,-1.763492942E0,-2.277709991E-1,1.959194039E0
4.711264052E0,-9.253489971E-1,-1.558413029E0,-3.021900058E-1,1.837454961E0
4.716275429E0,-1.023828030E0,-1.377200961E0,-4.086459875E-1,1.764057217E0
4.721286814E0,-1.084337950E0,-1.205456972E0,-4.636749923E-1,1.686389575E0
4.726298198E0,-1.085754991E0,-1.084331989E0,-4.576559961E-1,1.601277232E0
4.731309644E0,-1.082340002E0,-1.077707052E0,-4.533700049E-1,1.593253505E0
4.736321030E0,-9.990230203E-1,-1.173460960E0,-4.748989940E-1,1.612633460E0
4.741332644E0,-1.073451042E0,-1.259449959E0,-2.971979976E-1,1.681320311E0
4.746343800E0,-1.121701956E0,-1.309437037E0,1.089600008E-2,1.724227176E0
4.751355413E0,-1.069816947E0,-1.328284025E0,3.829869926E-1,1.748006232E0
4.756366814E0,-9.822509885E-1,-1.289705992E0,6.544619799E-1,1.748278877E0
4.761378198E0,-9.754220247E-1,-1.271005988E0,8.290609717E-1,1.803953005E0
4.766389658E0,-9.510790110E-1,-1.237586975E0,9.129149914E-1,1.808199820E0
4.771401055E0,-9.307140112E-1,-1.177834988E0,9.140080214E-1,1.757536484E0
4.776412439E0,-8.932539821E-1,-1.128111959E0,8.070549965E-1,1.649811212E0
4.781423824E0,-7.998120189E-1,-1.095841050E0,6.877390146E-1,1.521036431E0
4.786435208E0,-6.985099912E-1,-1.066666961E0,5.912190080E-1,1.405430371E0
4.791446593E0,-5.776960254E-1,-1.085842967E0,5.652359724E-1,1.353617136E0
4.796458206E0,-4.354040027E-1,-1.148625970E0,5.401579738E-1,1.341897500E0
4.801469593E0,-3.359130025E-1,-1.249861956E0,5.602629781E-1,1.410279071E0
4.806480987E0,-2.653940022E-1,-1.360787034E0,5.499879718E-1,1.491530120E0
4.811492371E0,-2.095800042E-1,-1.455059052E0,5.378410220E-1,1.565373306E0
4.816503831E0,-1.708350033E-1,-1.535033941E0,5.187749863E-1,1.629306995E0
4.821515204E0,-1.300300062E-1,-1.591138005E0,5.693489909E-1,1.694929564E0
4.826526817E0,-7.047499716E-2,-1.589841008E0,5.456939936E-1,1.682362354E0
4.831538204E0,-6.389000267E-2,-1.581370950E0,5.099179745E-1,1.662778504E0
4.836549663E0,-2.193200029E-2,-1.527441978E0,4.905540049E-1,1.604432374E0
4.841560973E0,6.021500006E-2,-1.432832003E0,4.110549986E-1,1.491844364E0
4.846572432E0,3.599320054E-1,-1.278368950E0,3.096759915E-1,1.363699908E0
4.851583819E0,-9.439100325E-2,-1.516345978E0,3.278039992E-1,1.554242660E0
4.856595218E0,-4.267900065E-2,-1.314193964E0,5.665580034E-1,1.431752508E0
4.861606602E0,-3.282999992E-2,-1.117879033E0,6.992740035E-1,1.318982742E0
4.866618216E0,-1.122749969E-1,-9.310430288E-1,7.660300136E-1,1.210887599E0
4.871629602E0,-2.227739990E-1,-7.150449753E-1,9.297620058E-1,1.193890681E0
4.876640992E0,-2.360319942E-1,-4.683459997E-1,9.839370251E-1,1.114984819E0
4.881652377E0,-1.900929958E-1,-1.220929995E-1,9.859539866E-1,1.011507445E0
4.886663836E0,-1.789100021E-1,1.300430000E-1,9.477199912E-1,9.731871107E-1
4.891675232E0,-1.782449931E-1,3.834069967E-1,7.810459733E-1,8.881469558E-1
4.896686616E0,-1.601600051E-1,6.259220243E-1,5.628020167E-1,8.568405439E-1
4.901697987E0,-3.916399926E-2,9.077609777E-1,3.538579941E-1,9.750791207E-1
4.906709372E0,-2.242299914E-2,1.146000981E0,1.330589950E-1,1.153917560E0
4.911720971E0,1.757200062E-2,1.379623055E0,-5.419999943E-4,1.379735063E0
4.916732358E0,2.795099914E-1,1.606253028E0,-9.971799701E-2,1.633437573E0
4.921743742E0,5.248510242E-1,1.780508995E0,-3.153739870E-1,1.882854649E0
4.926755141E0,2.401921988E0,2.639580965E0,-4.777899981E-1,3.600680517E0
4.931766525E0,7.337629795E-1,1.560981035E0,-5.777329803E-1,1.819023172E0
4.936778216E0,4.586139917E-1,1.310583949E0,-1.936279982E-1,1.401944679E0
4.941789616E0,2.316769958E-1,1.038851023E0,1.365949959E-1,1.073100121E0
4.946800770E0,1.493189931E-1,9.062579870E-1,3.263300061E-1,9.747261019E-1
4.951812389E0,1.907079965E-1,8.438140154E-1,5.171200037E-1,1.007871386E0
4.956823775E0,2.618719935E-1,8.776379824E-1,6.720269918E-1,1.135977837E0
4.961835235E0,2.908189893E-1,8.936160207E-1,8.200290203E-1,1.247226071E0
4.966846616E0,2.703880072E-1,9.385579824E-1,9.092040062E-1,1.334410988E0
4.971858001E0,1.551820040E-1,8.546069860E-1,1.156738043E0,1.446539821E0
4.976869386E0,1.766970009E-1,4.480690062E-1,1.537739038E0,1.611405913E0
4.981880770E0,6.410840154E-1,6.795700192E-1,1.481706023E0,1.751644046E0
4.986892155E0,7.950500250E-1,7.400760055E-1,1.722530007E0,2.036400418E0
4.991903768E0,9.040309787E-1,9.398300052E-1,1.991490960E0,2.380459765E0
4.996915165E0,9.133189917E-1,1.230887055E0,1.980730057E0,2.504501164E0
5.001926550E0,7.680249810E-1,1.474341035E0,1.794101954E0,2.445883415E0
5.006937920E0,4.225459993E-1,1.674831033E0,1.664667010E0,2.398899824E0
5.011949380E0,6.352099776E-2,1.829903007E0,1.375112057E0,2.289871852E0
5.016960785E0,-1.727149934E-1,2.080672026E0,1.117292047E0,2.367988189E0
5.021972170E0,-6.086859703E-1,2.259565115E0,9.133700132E-1,2.512046556E0
5.026983550E0,-1.220903039E0,2.299415112E0,7.690680027E-1,2.714660141E0
5.031994934E0,-1.315588951E0,2.568490982E0,6.523180008E-1,2.958621129E0
5.037006548E0,-1.342324972E0,2.748308897E0,2.775700092E-1,3.071169685E0
5.042017934E0,-1.186285973E0,3.023006916E0,-3.664369881E-1,3.268045485E0
5.047029300E0,-1.074745059E0,3.390289068E0,-1.347206950E0,3.803170187E0
5.052040685E0,-9.646419883E-1,3.833646059E0,-2.350441933E0,4.599125303E0
5.057052144E0,-9.230359793E-1,4.209916115E0,-3.297503948E0,5.426686042E0
5.062063531E0,-8.189389706E-1,4.497971058E0,-3.961698055E0,6.049583139E0
5.067074915E0,-7.367540002E-1,4.578441143E0,-4.247223854E0,6.288389319E0
5.072086280E0,-6.746590137E-1,4.453845024E0,-4.105073929E0,6.094549388E0
5.077097893E0,-6.379179955E-1,4.112171173E0,-3.671566010E0,5.549530439E0
5.082109271E0,-6.651189923E-1,3.505443096E0,-3.170983076E0,4.773431496E0
5.087120656E0,-6.654719710E-1,2.824971914E0,-2.681421995E0,3.951372316E0
5.092132045E0,-5.694079995E-1,2.207032919E0,-2.276087999E0,3.221148298E0
5.097143505E0,-4.169999957E-1,1.699411988E0,-1.992409945E0,2.651714066E0
5.102154891E0,-2.384230047E-1,1.323611021E0,-1.923022032E0,2.346658347E0
5.107166300E0,-2.192939967E-1,8.800449967E-1,-1.922031045E0,2.125269957E0
5.112177914E0,-9.203399718E-2,4.287630022E-1,-2.067801952E0,2.113791116E0
5.117189300E0,6.099199876E-2,-2.280900069E-2,-2.132524014E0,2.133517973E0
5.122200685E0,1.806129962E-1,-4.720849991E-1,-2.148224115E0,2.206887435E0
5.127212069E0,2.651000023E-1,-8.850470185E-1,-2.039422035E0,2.238934674E0
5.132223514E0,3.397679925E-1,-1.210340977E0,-1.848315001E0,2.235315618E0
5.137234901E0,3.384929895E-1,-1.538193941E0,-1.542847037E0,2.204766447E0
5.142246285E0,-2.103399932E-1,-2.538752079E0,-1.521852016E0,2.967412777E0
5.147257656E0,2.008029968E-1,-2.541929007E0,-1.373814940E0,2.896393000E0
5.152269040E0,4.542550147E-1,-1.901841998E0,-8.610060215E-1,2.136511637E0
5.157280654E0,2.928319871E-1,-1.448776960E0,-8.687180281E-1,1.714460926E0
5.162292045E0,-1.301500015E-2,-1.005584002E0,-1.172518015E0,1.544722328E0
5.167303430E0,-4.842483044E0,-3.147135019E0,-2.786370039E0,6.412328661E0
5.172314890E0,-4.291199893E-2,-2.459300011E-1,-2.641452074E0,2.653222958E0
5.177326199E0,1.110489964E0,8.243330121E-1,-1.792979956E0,2.264396166E0
5.182337659E0,3.089739978E-1,9.297950268E-1,-1.861505985E0,2.103613143E0
5.187349031E0,-4.346179962E-1,9.188290238E-1,-2.177675962E0,2.403208725E0
5.192360415E0,-7.117140293E-1,8.835330009E-1,-2.546495914E0,2.787796418E0
5.197372029E0,-6.088079810E-1,8.461030126E-1,-2.593170881E0,2.794829634E0
5.202383434E0,-4.532209933E-1,8.382970095E-1,-2.383860111E0,2.567282644E0
5.207394819E0,-4.419240057E-1,8.149809837E-1,-2.086045980E0,2.282778715E0
5.212406278E0,5.079680085E-1,1.232362032E0,-2.010822058E0,2.412499331E0
5.217417670E0,5.455030203E-1,1.104467034E0,-1.887228966E0,2.253675696E0
5.222429055E0,-2.222390026E-1,5.779190063E-1,-1.570446968E0,1.688100777E0
5.227440449E0,-5.314530134E-1,2.850840092E-1,-1.280524015E0,1.415435252E0
5.232451834E0,-7.138509750E-1,6.742099673E-2,-1.128793955E0,1.337275064E0
5.237463447E0,-9.329490066E-1,-1.731790006E-1,-1.037377000E0,1.405893259E0
5.242474829E0,-7.914969921E-1,-1.883990020E-1,-8.281340003E-1,1.160933932E0
5.247486288E0,-6.360080242E-1,-2.173680067E-1,-5.508350134E-1,8.690076347E-1
5.252497679E0,-6.256160140E-1,-4.655410051E-1,-3.163650036E-1,8.415525176E-1
5.257509064E0,-5.468639731E-1,-7.777159810E-1,-1.627590060E-1,9.645687359E-1
5.262520448E0,-3.675839901E-1,-1.005674005E0,3.317600116E-2,1.071260398E0
5.267531829E0,-1.407710016E-1,-1.153887033E0,2.967230082E-1,1.199715093E0
5.272543442E0,1.206519976E-1,-1.249369979E0,5.994309783E-1,1.390970793E0
5.277554598E0,2.687000036E-1,-1.402243972E0,8.318840265E-1,1.652428178E0
5.282566226E0,3.105100095E-1,-1.610185981E0,9.873920083E-1,1.914173016E0
5.287577612E0,4.014919996E-1,-1.736829996E0,1.092334032E0,2.090685988E0
5.292589072E0,3.981739879E-1,-1.906641006E0,1.154167056E0,2.264050363E0
5.297600453E0,3.360989988E-1,-2.117285967E0,1.192178965E0,2.452988603E0
5.302611838E0,3.488839865E-1,-2.287483931E0,1.189911008E0,2.601959065E0
5.307623466E0,4.075959921E-1,-2.431653976E0,1.111763000E0,2.704642772E0
5.312634853E0,4.927499890E-1,-2.564184904E0,9.074100256E-1,2.764279242E0
5.317646238E0,6.807289720E-1,-2.608504057E0,6.867250204E-1,2.781955536E0
5.322657621E0,8.518289924E-1,-2.641165972E0,3.752630055E-1,2.800391517E0
5.327669006E0,1.058794975E0,-2.652507067E0,2.258500084E-2,2.856107600E0
5.332680387E0,1.186962962E0,-2.654406071E0,-3.073090017E-1,2.923900047E0
5.337691846E0,1.219607949E0,-2.668307066E0,-5.529310107E-1,2.985471295E0
5.342703233E0,1.168488026E0,-2.672616959E0,-6.886389852E-1,2.997076797E0
5.347714617E0,1.059806943E0,-2.684041023E0,-7.627149820E-1,2.984794987E0
5.352726231E0,1.001024961E0,-2.657102108E0,-7.635390162E-1,2.940277949E0
5.357737617E0,9.800559878E-1,-2.601353884E0,-7.008709908E-1,2.866840057E0
5.362749016E0,9.562479854E-1,-2.526397943E0,-5.553150177E-1,2.757801941E0
5.367760476E0,8.698310256E-1,-2.441809893E0,-4.153110087E-1,2.625171385E0
5.372771847E0,7.376099825E-1,-2.378727913E0,-2.446839958E-1,2.502455839E0
5.377783232E0,5.641340017E-1,-2.344394922E0,-2.394600026E-2,2.411432797E0
5.382794616E0,3.778550029E-1,-2.348453999E0,1.563529968E-1,2.383790437E0
5.387806001E0,4.395439923E-1,-2.063117981E0,4.425249994E-1,2.155338280E0
5.392817386E0,2.737979889E-1,-1.887941003E0,6.240270138E-1,2.007161250E0
5.397829009E0,1.605210006E-1,-1.655452967E0,7.321839929E-1,1.817246520E0
5.402840396E0,9.964100271E-2,-1.401576042E0,8.318279982E-1,1.632875240E0
5.407851766E0,4.555999860E-2,-1.217262030E0,8.488280177E-1,1.484692415E0
5.412863226E0,-5.675000139E-3,-1.031231046E0,8.392519951E-1,1.329591511E0
5.417874536E0,-4.450799897E-2,-8.670359850E-1,7.948690057E-1,1.177093496E0
5.422885970E0,-1.058399975E-1,-7.149729729E-1,7.558640242E-1,1.045810155E0
5.427897357E0,-1.448159963E-1,-6.085690260E-1,7.170090079E-1,9.515407767E-1
5.432908970E0,-1.642789990E-1,-5.166890025E-1,6.848940253E-1,8.735187123E-1
5.437920348E0,-1.553329974E-1,-4.513460100E-1,6.472839713E-1,8.042500235E-1
5.442931732E0,-1.253560036E-1,-4.269649982E-1,5.829719901E-1,7.333959222E-1
5.447943122E0,-9.102100134E-2,-4.507049918E-1,5.013039708E-1,6.802392840E-1
5.452954507E0,-1.532999985E-2,-5.035009980E-1,4.138799906E-1,6.519546844E-1
5.457965980E0,1.097349972E-1,-5.445489883E-1,3.856700063E-1,6.762519679E-1
5.462977367E0,2.062759995E-1,-5.927709937E-1,3.727850020E-1,7.299971895E-1
5.467988766E0,2.612569928E-1,-6.788870096E-1,4.046579897E-1,8.324006708E-1
5.473000150E0,3.037160039E-1,-7.570779920E-1,5.031409860E-1,9.584160624E-1
5.478011764E0,3.291949928E-1,-8.559030294E-1,6.174389720E-1,1.105518079E0
5.483023150E0,3.820970058E-1,-9.084529877E-1,7.358450294E-1,1.229940186E0
5.488034535E0,4.127689898E-1,-9.530779719E-1,8.284329772E-1,1.328546972E0
5.493045939E0,4.356589913E-1,-9.805830121E-1,8.452230096E-1,1.365922302E0
5.498057399E0,4.367969930E-1,-9.742940068E-1,8.468499780E-1,1.362789533E0
5.503068771E0,4.628570080E-1,-9.225959778E-1,8.204029799E-1,1.318514694E0
5.508080155E0,4.319320023E-1,-9.045119882E-1,7.479990125E-1,1.250683699E0
5.513091540E0,3.734999895E-1,-8.673310280E-1,6.869909763E-1,1.167785064E0
5.518103139E0,3.624370098E-1,-8.092039824E-1,5.723029971E-1,1.055320990E0
5.523114526E0,3.904449940E-1,-7.423139811E-1,4.426490068E-1,9.483751805E-1
5.528125911E0,3.755869865E-1,-6.712650061E-1,3.217180073E-1,8.337654161E-1
5.533137375E0,3.541690111E-1,-5.764970183E-1,2.719309926E-1,7.291988517E-1
5.538148990E0,2.849059999E-1,-5.009859800E-1,2.098229975E-1,6.133384638E-1
5.543160146E0,2.064999938E-1,-4.205330014E-1,1.891559958E-1,5.052427570E-1
5.548171538E0,1.169039980E-1,-3.396849930E-1,2.064680010E-1,4.143446327E-1
5.553183153E0,6.275299937E-2,-2.559550107E-1,2.535710037E-1,3.657173230E-1
5.558194540E0,3.604599833E-2,-1.864539981E-1,2.625409961E-1,3.240249713E-1
5.563205896E0,1.018999959E-3,-1.145740002E-1,2.532609999E-1,2.779736929E-1
5.568217280E0,-4.685999826E-2,-5.254499987E-2,1.959940046E-1,2.082558193E-1
5.573228740E0,-7.266899943E-2,1.147000026E-2,1.339360029E-1,1.528109854E-1
5.578240126E0,-5.167999864E-2,7.044599950E-2,1.230119988E-1,1.508821161E-1
5.583251511E0,-2.028400078E-2,1.292839944E-1,1.361310035E-1,1.888317823E-1
5.588262896E0,3.745299950E-2,1.760929972E-1,1.749629974E-1,2.510448591E-1
5.593274509E0,1.184310019E-1,2.156839967E-1,2.294889987E-1,3.364679615E-1
5.598285896E0,1.687030047E-1,2.313410044E-1,2.665869892E-1,3.912134800E-1
5.603297285E0,2.031210065E-1,2.543919981E-1,3.357239962E-1,4.676366469E-1
5.608308670E0,2.478079945E-1,2.851560116E-1,4.474219978E-1,5.855844919E-1
5.613320055E0,2.796210051E-1,2.977409959E-1,6.073769927E-1,7.319456389E-1
5.618331453E0,3.223760128E-1,3.518080115E-1,7.470449805E-1,8.864374617E-1
5.623342913E0,3.829860091E-1,4.374560118E-1,8.343830109E-1,1.016976428E0
5.628354319E0,4.610559940E-1,5.545110106E-1,8.963879943E-1,1.150463614E0
5.633365704E0,5.236330032E-1,6.527720094E-1,9.427289963E-1,1.260571608E0
5.638377317E0,5.962669849E-1,8.051239848E-1,1.009708047E0,1.422416707E0
5.643388694E0,7.266229987E-1,1.003355980E0,8.981279731E-1,1.530143150E0
5.648400079E0,7.802960277E-1,1.226004004E0,8.468769789E-1,1.682007232E0
5.653411458E0,7.063509822E-1,1.592687011E0,4.442780018E-1,1.798045207E0
5.658422843E0,7.958710194E-1,1.911900997E0,4.512780011E-1,2.119534840E0
5.663434297E0,4.461509883E-1,1.742954016E0,-1.099449992E-1,1.802505841E0
5.668445684E0,8.087329865E-1,3.177197933E0,8.619710207E-1,3.389930647E0
5.673457069E0,1.590110064E-1,3.673197985E0,1.420989037E0,3.941684637E0
5.678468687E0,-3.235340118E-1,4.153926849E0,1.337532997E0,4.375931563E0
5.683480074E0,-6.962760091E-1,4.633154869E0,1.025336981E0,4.796065079E0
5.688491458E0,-9.133999944E-1,5.031507969E0,2.371190041E-1,5.119237972E0
5.693502843E0,-7.711809874E-1,5.286798000E0,-8.261719942E-1,5.406247624E0
5.698514298E0,-4.702759981E-1,5.342104912E0,-1.960536957E0,5.709899260E0
5.703525684E0,-1.828130037E-1,5.346487999E0,-2.888591051E0,6.079663870E0
5.708537078E0,6.775499880E-2,5.327081203E0,-3.464903116E0,6.355150548E0
5.713548462E0,2.629170120E-1,5.184010983E0,-3.641423941E0,6.340588580E0
5.718560076E0,3.170109987E-1,4.797973156E0,-3.565279961E0,5.986005645E0
5.723571467E0,2.704240084E-1,4.238485813E0,-3.428518057E0,5.458262287E0
5.728582852E0,2.064239979E-1,3.615554094E0,-3.391328096E0,4.961446214E0
5.733594228E0,1.363469958E-1,2.945812941E0,-3.455858946E0,4.543056839E0
5.738605687E0,1.882000011E-3,2.272245884E0,-3.612478971E0,4.267681949E0
5.743617074E0,-1.499149948E-1,1.599493980E0,-3.836926937E0,4.159671119E0
5.748628448E0,-3.336730003E-1,9.235360026E-1,-3.919447899E0,4.040585137E0
5.753639833E0,-5.460379720E-1,2.231689990E-1,-3.916512012E0,3.960685321E0
5.758651471E0,-6.601740122E-1,-4.364579916E-1,-3.771576881E0,3.853714763E0
5.763662857E0,-7.825009823E-1,-1.019049048E0,-3.449700117E0,3.681195410E0
5.768674242E0,-9.880920053E-1,-1.560860991E0,-2.879895926E0,3.421463632E0
5.773685626E0,-1.188138962E0,-1.995185971E0,-2.151736975E0,3.165819524E0
5.778697006E0,-1.310174942E0,-2.291187048E0,-1.472012997E0,3.022071927E0
5.783708466E0,-1.425506949E0,-2.513734102E0,-8.778100014E-1,3.020178736E0
5.788719852E0,-1.536072969E0,-2.658252954E0,-3.609800041E-1,3.091299969E0
5.793731237E0,-1.662791967E0,-2.703347921E0,-2.369800024E-2,3.173882277E0
5.798742621E0,-1.673776984E0,-2.574817896E0,2.105509937E-1,3.078237858E0
5.803754221E0,-1.249956012E0,-2.157690048E0,3.799059987E-1,2.522368915E0
5.808765607E0,-1.192404032E0,-1.906432033E0,4.431230128E-1,2.291870082E0
5.813776992E0,-1.130607963E0,-1.629518986E0,3.781690001E-1,2.019063714E0
5.818788456E0,-9.186329842E-1,-1.298060060E0,2.513630092E-1,1.609978211E0
5.823799842E0,-6.694149971E-1,-9.692479968E-1,6.532099843E-2,1.179756310E0
5.828811242E0,-6.061229706E-1,-7.075650096E-1,-1.251479983E-1,9.400507006E-1
5.833822855E0,-5.055699944E-1,-4.215820134E-1,-2.438469976E-1,7.019927147E-1
5.838834242E0,-3.181659877E-1,-8.531899750E-2,-3.673540056E-1,4.934145240E-1
5.843845647E0,-2.576510012E-1,2.294880003E-1,-5.776259899E-1,6.728302646E-1
5.848857031E0,-2.555620074E-1,4.848319888E-1,-8.292829990E-1,9.940242902E-1
5.853868416E0,-2.269790024E-1,7.071570158E-1,-1.103827000E0,1.330422699E0
5.858879870E0,-2.843450010E-1,8.374630213E-1,-1.360028028E0,1.622304728E0
5.863891257E0,-3.722099960E-1,9.149270058E-1,-1.522240043E0,1.814620196E0
5.868902642E0,-4.294430017E-1,9.236099720E-1,-1.546821952E0,1.852062316E0
5.873914026E0,-4.637469947E-1,8.830230236E-1,-1.486333013E0,1.789965575E0
5.878925411E0,-4.245150089E-1,8.145419955E-1,-1.391849995E0,1.667614483E0
5.883937000E0,-3.364360034E-1,6.870419979E-1,-1.259443998E0,1.473572216E0
5.888948387E0,-2.096319944E-1,4.933730066E-1,-1.085351944E0,1.210516972E0
5.893959772E0,-3.098499961E-2,2.766360044E-1,-8.590589762E-1,9.030337057E-1
5.898971217E0,1.286440045E-1,2.955899946E-2,-6.564170122E-1,6.695567999E-1
5.903982604E0,2.374799997E-1,-2.405409962E-1,-4.628849924E-1,5.731659770E-1
5.908993988E0,3.344379961E-1,-5.408189893E-1,-2.855289876E-1,6.970371261E-1
5.914005373E0,3.576180041E-1,-8.398669958E-1,-1.146520004E-1,9.200066786E-1
5.919016986E0,3.588759899E-1,-1.150046945E0,1.023199968E-2,1.204784066E0
5.924028387E0,3.272579908E-1,-1.412428021E0,1.526699960E-1,1.457861048E0
5.929039772E0,2.676669955E-1,-1.641358972E0,2.457150072E-1,1.681095107E0
5.934051156E0,1.560309976E-1,-1.839226007E0,3.059909940E-1,1.871023374E0
5.939062616E0,3.751699999E-2,-2.006042957E0,2.974950075E-1,2.028329153E0
5.944074002E0,-4.033200070E-2,-2.127451897E0,2.319619954E-1,2.140440284E0
5.949085397E0,-4.181399941E-2,-2.244115114E0,1.283079982E-1,2.248169033E0
5.954096782E0,-9.626500309E-2,-2.370388985E0,2.471400052E-2,2.372471638E0
5.959108395E0,-1.726730019E-1,-2.487086058E0,-7.914099842E-2,2.494328832E0
5.964119772E0,-2.617299855E-1,-2.591841936E0,-2.048200071E-1,2.613063038E0
5.969131231E0,-3.659349978E-1,-2.639190912E0,-3.667849898E-1,2.689566568E0
5.974142541E0,-3.944720030E-1,-2.645895004E0,-4.597550035E-1,2.714358708E0
5.979153938E0,-3.521080017E-1,-2.595196962E0,-4.718169868E-1,2.661134831E0
5.984165399E0,-2.983219922E-1,-2.510992050E0,-4.698840082E-1,2.571938582E0
5.989176791E0,-2.449139953E-1,-2.410024881E0,-4.515239894E-1,2.464158418E0
5.994188175E0,-2.563869953E-1,-2.273185015E0,-4.044429958E-1,2.323075233E0
5.999199784E0,-2.393690050E-1,-2.078954935E0,-3.524569869E-1,2.122163300E0
6.004211170E0,-2.296269983E-1,-1.865599036E0,-3.266719878E-1,1.907852958E0
6.009222640E0,-2.606900036E-1,-1.657052040E0,-2.983910143E-1,1.703765811E0
6.014234027E0,-2.559570074E-1,-1.450899959E0,-2.605200112E-1,1.496160204E0
6.019245411E0,-2.872140110E-1,-1.239954948E0,-1.987580061E-1,1.288209962E0
6.024256801E0,-3.352690041E-1,-1.060112953E0,-1.154469997E-1,1.117842918E0
6.029268185E0,-3.747760057E-1,-8.851159811E-1,-3.493100032E-2,9.618251033E-1
6.034279575E0,-3.860180080E-1,-7.337499857E-1,6.015900150E-2,8.312749542E-1
6.039291188E0,-3.651030064E-1,-5.941870213E-1,1.531829983E-1,7.140192241E-1
6.044302652E0,-3.730759919E-1,-4.565419853E-1,2.885249853E-1,6.564015137E-1
6.049313944E0,-3.553079963E-1,-3.451620042E-1,3.488950133E-1,6.058946375E-1
6.054325326E0,-3.541319966E-1,-2.551099956E-1,4.200640023E-1,6.057593143E-1
6.059336788E0,-3.666389883E-1,-1.816959977E-1,4.480310082E-1,6.067696166E-1
6.064348170E0,-3.758929968E-1,-1.393620074E-1,4.454770088E-1,5.993054977E-1
6.069359554E0,-3.566420078E-1,-8.512400091E-2,4.456140101E-1,5.770714542E-1
6.074371168E0,-2.468529940E-1,-1.960100047E-2,3.832589984E-1,4.562982136E-1
6.079382540E0,-1.837839931E-1,3.577199951E-2,2.900840044E-1,3.452606576E-1
6.084393925E0,-2.147340029E-1,5.045999959E-2,2.199430019E-1,3.114993221E-1
6.089405338E0,-2.187269926E-1,7.225699723E-2,1.556620002E-1,2.780165989E-1
6.094416723E0,-3.568170071E-1,3.014500067E-2,1.316149980E-1,3.815096398E-1
6.099428113E0,-4.723890126E-1,1.260299981E-2,1.351830065E-1,4.915126245E-1
6.104439572E0,-5.081710219E-1,7.273000199E-3,1.237040013E-1,5.230615299E-1
6.109450963E0,-4.222629964E-1,-9.180000052E-4,6.275799870E-2,4.269021519E-1
6.114462348E0,-4.364059865E-1,-5.671900138E-2,5.816999823E-2,4.439042452E-1
6.119473718E0,-4.340209961E-1,-1.121380031E-1,9.889800102E-2,4.590533426E-1
6.124485332E0,-4.249269962E-1,-1.911190003E-1,1.488739997E-1,4.891348405E-1
6.129496718E0,-4.208160043E-1,-2.935140133E-1,2.217680067E-1,5.589433193E-1
6.134508178E0,-3.915250003E-1,-3.811869919E-1,3.033539951E-1,6.249951960E-1
6.139519564E0,-3.143219948E-1,-4.950959980E-1,3.584159911E-1,6.872993426E-1
6.144530949E0,-2.532359958E-1,-6.302829981E-1,4.366970062E-1,8.075205276E-1
6.149542334E0,-1.914529949E-1,-7.845129967E-1,4.794709980E-1,9.391524526E-1
6.154553718E0,-1.106109992E-1,-8.909549713E-1,5.205990076E-1,1.037814473E0
6.159565332E0,-2.510599978E-2,-1.004691958E0,5.556010008E-1,1.148359140E0
6.164576718E0,5.777300149E-2,-1.082829952E0,5.663689971E-1,1.223369227E0
6.169588178E0,1.520500034E-1,-1.122545004E0,6.098300219E-1,1.286514339E0
6.174599564E0,2.628520131E-1,-1.138491035E0,6.158260107E-1,1.320793206E0
6.179610949E0,3.544090092E-1,-1.137832999E0,5.819720030E-1,1.326258305E0
6.184622334E0,4.410189986E-1,-1.120533943E0,5.199480057E-1,1.311655444E0
6.189633718E0,4.963169992E-1,-1.084193945E0,4.799669981E-1,1.285369750E0
6.194645107E0,5.490940213E-1,-1.059903026E0,4.380649924E-1,1.271534351E0
6.199656720E0,6.042559743E-1,-1.042840004E0,4.276320040E-1,1.278870473E0
6.204668107E0,5.998229980E-1,-1.004263997E0,3.625909984E-1,1.224665684E0
6.209679492E0,5.874649882E-1,-9.560220242E-1,2.833350003E-1,1.157312380E0
6.214690951E0,6.223180294E-1,-8.773919940E-1,1.747960001E-1,1.089793596E0
6.219702334E0,7.495869994E-1,-7.740139961E-1,-3.178799897E-2,1.077955849E0
6.224713718E0,2.283989936E-1,-8.952429891E-1,-4.710600153E-2,9.251189573E-1
6.229725093E0,-4.724999890E-3,-8.192939758E-1,-7.813899964E-2,8.230253020E-1
6.234736478E0,-1.210749969E-1,-7.001299858E-1,-1.756139994E-1,7.319026087E-1
6.239747857E0,-2.308419943E-1,-5.825849771E-1,-1.617150009E-1,6.471823726E-1
6.244759471E0,-2.275560051E-1,-4.240339994E-1,-1.372590065E-1,5.004264212E-1
6.249770852E0,-3.533230126E-1,-3.191699982E-1,-3.781799972E-2,4.776367239E-1
6.254782237E0,-5.649060011E-1,-2.554860115E-1,9.497799724E-2,6.272262049E-1
6.259793622E0,-7.139390111E-1,-1.615220010E-1,2.278400064E-1,7.666220300E-1
6.264805091E0,-7.980039716E-1,-4.746200144E-2,2.981239855E-1,8.531945212E-1
6.269816478E0,-8.841329813E-1,5.570499972E-2,3.818910122E-1,9.646942110E-1
6.274828091E0,-8.424879909E-1,1.595389992E-1,5.112429857E-1,9.983026082E-1
6.279839463E0,-5.322129726E-1,3.030270040E-1,5.359460115E-1,8.138268493E-1
6.284850847E0,-4.719200134E-1,3.155879974E-1,6.373810172E-1,8.535565853E-1
6.289862242E0,-4.173269868E-1,2.857350111E-1,7.107539773E-1,8.723402586E-1
6.294873627E0,-2.892050147E-1,2.419710010E-1,8.079940081E-1,8.916522994E-1
6.299885086E0,-1.780319959E-1,1.942279935E-1,9.587799907E-1,9.943233757E-1
6.304896454E0,-1.019110009E-1,1.736879945E-1,1.097043991E0,1.115373879E0
6.309907838E0,-3.423000127E-2,1.898600012E-1,1.226212025E0,1.241295469E0
6.314919452E0,-4.770999774E-3,1.973900050E-1,1.337643981E0,1.352137935E0
6.319930838E0,5.290399864E-2,1.791220009E-1,1.385347009E0,1.397880488E0
6.324942223E0,9.636999667E-2,1.443880051E-1,1.368834972E0,1.379798628E0
6.329953612E0,2.074649930E-1,1.643189937E-1,1.327813983E0,1.353932210E0
6.334965071E0,3.161292076E0,4.570199922E-2,1.668897986E0,3.575063182E0
6.339976458E0,3.056349039E0,2.111119926E-1,1.818640947E0,3.562764743E0
6.344987843E0,-6.420300007E-1,-2.298520058E-1,8.331940174E-1,1.076683211E0
6.349999227E0,-1.361899018E0,5.944920182E-1,2.117410004E-1,1.501007644E0
6.355010622E0,-9.346140027E-1,1.552808046E0,-3.973119855E-1,1.855417197E0
6.360022235E0,-9.225230217E-1,1.704187989E0,-7.698159814E-1,2.085167157E0
6.365033622E0,-6.910859942E-1,2.058332920E0,-1.053390980E0,2.413289626E0
6.370045081E0,-4.025970101E-1,2.483566999E0,-1.524966955E0,2.942059416E0
6.375056468E0,1.294839978E-1,2.965491056E0,-2.275407076E0,3.740104367E0
6.380067843E0,3.497529924E-1,3.209897995E0,-2.881927013E0,4.327964372E0
6.385079227E0,-2.121559978E-1,2.652040005E0,-3.809953928E0,4.646942574E0
6.390090817E0,2.630639970E-1,3.345113039E0,-3.901036024E0,5.145587039E0
6.395101973E0,6.517320275E-1,3.863333941E0,-3.483968019E0,5.242913020E0
6.400113355E0,8.396229744E-1,3.950787067E0,-3.341268063E0,5.241923069E0
6.405124971E0,9.534100294E-1,3.729684114E0,-3.433307886E0,5.158210670E0
6.410136357E0,1.270254970E0,3.355696917E0,-3.416659117E0,4.954574553E0
6.415147733E0,1.620597959E0,3.010828018E0,-3.088272095E0,4.607477361E0
6.420159192E0,1.782578945E0,2.651978970E0,-2.600522995E0,4.119866502E0
6.425170583E0,1.830778003E0,2.319639921E0,-2.071801901E0,3.608994400E0
6.430181968E0,1.947469950E0,2.042366982E0,-1.634948969E0,3.261435301E0
6.435193597E0,2.142904997E0,1.731518030E0,-1.339059949E0,3.063213682E0
6.440204984E0,2.185168982E0,1.335304976E0,-1.110589027E0,2.791309879E0
6.445216358E0,2.100837946E0,9.167240262E-1,-9.924319983E-1,2.497763857E0
6.450227743E0,2.096061945E0,5.586349964E-1,-9.278169870E-1,2.359320474E0
6.455239192E0,2.150203943E0,3.125480115E-1,-9.704380035E-1,2.379666610E0
6.460250579E0,2.101542950E0,8.781299740E-2,-1.084529042E0,2.366515822E0
6.465261974E0,1.904503942E0,-7.913400233E-2,-1.255964994E0,2.282727649E0
6.470273587E0,1.779379010E0,-1.985310018E-1,-1.466930032E0,2.314624794E0
6.475284974E0,1.672772050E0,-2.102610022E-1,-1.630805969E0,2.345613807E0
6.480296358E0,1.600062966E0,-1.403450072E-1,-1.738363981E0,2.366813797E0
6.485307743E0,1.515697002E0,-3.126699850E-2,-1.766394019E0,2.327759193E0
6.490319142E0,1.415007949E0,4.796800017E-2,-1.750607014E0,2.251482476E0
6.495330526E0,1.330518007E0,1.022489965E-1,-1.685873985E0,2.150093979E0
6.500341911E0,1.235787988E0,1.579540074E-1,-1.601873040E0,2.029314824E0
6.505353370E0,1.133118987E0,1.962099969E-1,-1.443577051E0,1.845635854E0
6.510364762E0,1.041218996E0,1.881210059E-1,-1.292299986E0,1.670199319E0
6.515376375E0,9.644489884E-1,1.359300017E-1,-1.136176944E0,1.496508224E0
6.520387762E0,9.047269821E-1,4.674899951E-2,-9.542559981E-1,1.315796675E0
6.525399147E0,8.455629945E-1,-1.009709984E-1,-7.656239867E-1,1.145142790E0
6.530410531E0,7.918300033E-1,-2.809689939E-1,-5.795339942E-1,1.020685054E0
6.535421991E0,7.321519852E-1,-4.861690104E-1,-4.257749915E-1,9.765711338E-1
6.540433367E0,6.528270245E-1,-6.401429772E-1,-3.026579916E-1,9.631033252E-1
6.545444752E0,5.801889896E-1,-7.670779824E-1,-2.203380018E-1,9.866999189E-1
6.550456137E0,4.911069870E-1,-8.838080168E-1,-1.701820046E-1,1.025311951E0
6.555467521E0,4.317899942E-1,-9.700880051E-1,-1.193360016E-1,1.068529091E0
6.560479135E0,4.127829969E-1,-1.032709002E0,-7.422000170E-2,1.114623836E0
6.565490598E0,3.744899929E-1,-1.088379979E0,-6.171000190E-3,1.151022074E0
6.570502012E0,2.786749899E-1,-1.134711027E0,6.093899906E-2,1.170018131E0
6.575513397E0,3.504360020E-1,-1.154917955E0,4.189960063E-1,1.277575254E0
6.580524704E0,3.262000158E-2,-1.065191984E0,-1.831500046E-2,1.065848707E0
6.585536155E0,4.726999998E-2,-1.128741026E0,1.432929933E-1,1.138781647E0
6.590547541E0,1.000560001E-1,-1.019942045E0,2.533130050E-1,1.055680092E0
6.595558935E0,1.089259982E-1,-9.255099893E-1,3.051759899E-1,9.805947165E-1
6.600570548E0,8.227600157E-2,-8.453969955E-1,3.167240024E-1,9.065205536E-1
6.605581921E0,7.677900046E-2,-7.776589990E-1,2.683799863E-1,8.262423075E-1
6.610593381E0,1.009209976E-1,-7.034199834E-1,2.060060054E-1,7.398805275E-1
6.615604762E0,1.791889966E-1,-6.584389806E-1,2.247650027E-1,7.184496462E-1
6.620616147E0,1.548160017E-1,-5.810739994E-1,3.059899993E-2,6.021223181E-1
6.625627532E0,1.120159999E-1,-5.783179998E-1,-5.960499868E-2,5.920743611E-1
6.630638925E0,2.340109944E-1,-4.950900078E-1,-2.558699995E-2,5.482061254E-1
6.635650539E0,3.558749855E-1,-4.104749858E-1,-1.229999959E-2,5.434040939E-1
6.640661925E0,4.199480116E-1,-3.434340060E-1,-3.521399945E-2,5.436389194E-1
6.645673314E0,9.201689959E-1,-5.009689927E-1,1.140630022E-1,1.053893392E0
6.650684698E0,2.137152910E0,-2.201679945E-1,1.471765995E0,2.604225730E0
6.655696140E0,-2.406679988E-1,-3.137739897E-1,-2.650040090E-1,4.760276536E-1
6.660707527E0,-5.872179866E-1,-5.261710286E-1,-4.079250097E-1,8.877408004E-1
6.665718911E0,2.264889926E-1,-8.414500207E-2,-4.987019897E-1,5.541491853E-1
6.670730301E0,5.636979938E-1,-2.514699996E-1,-4.320810139E-1,7.534497936E-1
6.675741685E0,6.450960040E-1,-3.341880143E-1,-1.336389929E-1,7.387082399E-1
6.680753299E0,7.058839798E-1,-3.733739853E-1,7.923199981E-2,8.024699593E-1
6.685764681E0,8.701239824E-1,-4.251340032E-1,1.580989957E-1,9.812491824E-1
6.690776065E0,8.940410018E-1,-5.437589884E-1,2.042479962E-1,1.066161524E0
6.695787436E0,8.539770246E-1,-6.643949747E-1,2.278790027E-1,1.105724324E0
6.700798895E0,8.653290272E-1,-7.322940230E-1,2.601430118E-1,1.163066313E0
6.705810282E0,8.849279881E-1,-8.215460181E-1,2.980780005E-1,1.243738678E0
6.710821895E0,8.869919777E-1,-8.985210061E-1,3.437730074E-1,1.308539127E0
6.715833031E0,8.700000048E-1,-9.151579738E-1,4.159269929E-1,1.329439502E0
6.720844414E0,8.092880249E-1,-9.288229942E-1,4.581519961E-1,1.314367724E0
6.725856029E0,7.756010294E-1,-8.706700206E-1,4.346979856E-1,1.244421786E0
6.730867498E0,7.749630213E-1,-8.033040166E-1,3.638609946E-1,1.173993122E0
6.735878882E0,7.741119862E-1,-7.386000156E-1,2.931390107E-1,1.109373620E0
6.740890267E0,7.035869956E-1,-6.475719810E-1,2.249719948E-1,9.823423687E-1
6.745901643E0,5.842360258E-1,-5.587159991E-1,1.566610038E-1,8.234306113E-1
6.750913027E0,5.217980146E-1,-4.769400060E-1,1.112930030E-1,7.156333348E-1
6.755924412E0,4.335840046E-1,-4.523690045E-1,5.522700027E-2,6.290332478E-1
6.760936034E0,3.413639963E-1,-4.680539966E-1,3.738500178E-2,5.805183546E-1
6.765947421E0,2.547299862E-1,-4.953269958E-1,7.687000092E-3,5.570415502E-1
6.770958801E0,1.665380001E-1,-5.078089833E-1,-3.222000087E-3,5.344298367E-1
6.775970185E0,1.025869995E-1,-5.342559814E-1,-1.232299954E-2,5.441556786E-1
6.780981645E0,4.361100122E-2,-5.580049753E-1,-3.592000157E-2,5.608580198E-1
6.785993026E0,-2.657099999E-2,-5.692639947E-1,-2.497999929E-2,5.704309897E-1
6.791004411E0,-1.053839996E-1,-5.824289918E-1,-2.224300057E-2,5.923040342E-1
6.796016015E0,-1.507419944E-1,-5.950940251E-1,2.600000007E-3,6.138947855E-1
6.801027402E0,-1.475339979E-1,-6.024960279E-1,6.049900129E-2,6.232398201E-1
6.806038787E0,-1.759310067E-1,-6.212540269E-1,1.250430048E-1,6.576808026E-1
6.811050176E0,-2.095630020E-1,-6.323019862E-1,1.752880067E-1,6.888021043E-1
6.816061561E0,-2.808170021E-1,-6.546750069E-1,2.304030061E-1,7.486942623E-1
6.821073024E0,-3.537549973E-1,-7.052400112E-1,2.530100048E-1,8.285651055E-1
6.826084411E0,-3.614319861E-1,-7.111129761E-1,6.125900149E-2,8.000421305E-1
6.831096039E0,-5.491510034E-1,-7.362189889E-1,-1.419679970E-1,9.293762081E-1
6.836107426E0,-3.954750001E-1,-7.097280025E-1,2.257760018E-1,8.432610013E-1
6.841118886E0,-2.904889882E-1,-7.355110049E-1,3.496400118E-1,8.646435268E-1
6.846130190E0,-3.019349873E-1,-7.993969917E-1,3.438450098E-1,9.211024252E-1
6.851141573E0,-3.124589920E-1,-8.962820172E-1,3.858329952E-1,1.024606840E0
6.856152958E0,-2.667919993E-1,-9.732419848E-1,5.227289796E-1,1.136496158E0
6.861164443E0,-2.061920017E-1,-1.008754015E0,6.778810024E-1,1.232729677E0
6.866175830E0,-2.697770000E-1,-1.060197949E0,7.465459704E-1,1.324435807E0
6.871187443E0,-2.614650130E-1,-1.111098051E0,8.031449914E-1,1.395687898E0
6.876198585E0,-2.044750005E-1,-1.159261942E0,8.550999761E-1,1.454955066E0
6.881210198E0,-1.326320022E-1,-1.197664976E0,8.864539862E-1,1.495925571E0
6.886221585E0,1.537992001E0,-1.357946992E0,1.416156054E0,2.492977616E0
6.891232960E0,5.096039772E-1,-1.229892015E0,1.370134950E0,1.910392725E0
6.896244344E0,-8.516039848E-1,-1.624338984E0,1.210819006E0,2.197678127E0
6.901255813E0,-6.934390068E-1,-1.345060945E0,1.129794002E0,1.888512930E0
6.906267199E0,-2.993099988E-1,-1.176187992E0,9.860320091E-1,1.563733926E0
6.911278570E0,-2.359869927E-1,-1.253167987E0,1.122900009E0,1.699124567E0
6.916290184E0,-2.579140067E-1,-1.169214010E0,1.302248955E0,1.769020457E0
6.921301339E0,-1.753879935E-1,-9.972620010E-1,1.424602985E0,1.747794643E0
6.926312977E0,1.997100003E-2,-7.224320173E-1,1.350918055E0,1.532085654E0
6.931324363E0,6.133149862E-1,-5.496370196E-1,1.198897004E0,1.454513717E0
6.936335748E0,1.206565022E0,-4.864319861E-1,8.901759982E-1,1.576333892E0
6.941347203E0,1.443202972E0,-4.796510041E-1,3.981559873E-1,1.572077637E0
6.946358589E0,1.289803982E0,-4.661479890E-1,-1.867479980E-1,1.384110933E0
6.951369989E0,1.460894942E0,-3.111670017E-1,-5.212529898E-1,1.582006199E0
6.956381373E0,1.568735003E0,-2.156990021E-1,-5.699250102E-1,1.682934962E0
6.961392987E0,1.434257030E0,-1.168619990E-1,-6.198350191E-1,1.566826540E0
