"Time (s)","Linear Acceleration x (m/s^2)","Linear Acceleration y (m/s^2)","Linear Acceleration z (m/s^2)","Absolute acceleration (m/s^2)"
4.179563800E-2,2.510848045E0,1.917999983E-1,3.211300075E-2,2.518367803E0
4.680702000E-2,2.421622992E0,1.906909943E-1,1.953220069E-1,2.436959510E0
5.181840500E-2,2.307348013E0,1.863420010E-1,3.361769915E-1,2.339143682E0
5.682979000E-2,2.215224028E0,2.067030072E-1,3.698300123E-1,2.255375327E0
6.184115900E-2,2.181665897E0,2.198940068E-1,3.018400073E-1,2.213397129E0
6.685254400E-2,2.133089066E0,2.307389975E-1,2.279340029E-1,2.157605932E0
7.186392900E-2,2.028048038E0,2.371380031E-1,1.948850006E-1,2.051144423E0
7.687529900E-2,1.877462029E0,2.128259987E-1,1.548199952E-1,1.895818506E0
8.188668400E-2,1.798822999E0,2.265470028E-1,2.188899927E-2,1.813164872E0
8.689806900E-2,1.715855956E0,2.706249952E-1,-2.388930023E-1,1.753416498E0
9.190945400E-2,1.577486038E0,2.881639898E-1,-4.434910119E-1,1.663786333E0
9.692083900E-2,1.352242947E0,2.204360068E-1,-4.478349984E-1,1.441426101E0
1.019322230E-1,1.095944047E0,1.129790023E-1,-4.203020036E-1,1.179199467E0
1.069435310E-1,8.067880273E-1,-9.643100202E-2,-3.851799965E-1,8.992049204E-1
1.119549140E-1,5.507050157E-1,-3.121350110E-1,-3.311600089E-1,7.144027091E-1
1.169662980E-1,3.613669872E-1,-5.008730292E-1,-2.864789963E-1,6.808304533E-1
1.219776830E-1,2.900849879E-1,-6.578099728E-1,-1.718270034E-1,7.391804783E-1
1.269890680E-1,-9.983890057E-1,-1.184515953E0,1.247189999E0,1.988804048E0
1.320004520E-1,-8.417320251E-1,-1.225540996E0,2.111754894E0,2.582628945E0
1.370118370E-1,2.446839958E-1,-9.784209728E-1,1.339442015E0,1.676688036E0
1.420232220E-1,8.160889745E-1,-9.464939833E-1,5.918980241E-1,1.382821516E0
1.470346070E-1,1.061177969E0,-1.007235050E0,-1.344870031E-1,1.469254193E0
1.520459820E-1,1.123208046E0,-1.091477990E0,-7.141289711E-1,1.721307847E0
1.570571370E-1,1.219671965E0,-1.242172003E0,-9.687470198E-1,1.992250430E0
1.620685190E-1,1.352872014E0,-1.349212050E0,-1.119130015E0,2.214291723E0
1.670799040E-1,1.508466959E0,-1.462864995E0,-1.033738971E0,2.341807597E0
1.720915190E-1,2.471704960E0,-1.420488954E0,-9.347069860E-1,3.000131901E0
1.771029060E-1,3.002950907E0,-1.340361953E0,-1.905499995E-1,3.294023924E0
1.821140500E-1,2.811666965E0,-1.534034967E0,-3.126949966E-1,3.218153596E0
1.871256630E-1,2.474800110E0,-1.638954043E0,-2.899900079E-2,2.968441827E0
1.921368190E-1,2.326428890E0,-1.588228941E0,3.382740021E-1,2.837106246E0
1.971484320E-1,2.066977024E0,-1.649970055E0,5.004180074E-1,2.691693404E0
2.021595880E-1,1.798593044E0,-1.692628980E0,6.157780290E-1,2.545410062E0
2.071709710E-1,1.580142021E0,-1.673177004E0,6.894230247E-1,2.402430894E0
2.121823560E-1,1.449308991E0,-1.596444011E0,7.408009768E-1,2.279893883E0
2.171937260E-1,1.379621029E0,-1.507876039E0,6.573179960E-1,2.146884086E0
2.222051110E-1,1.346966028E0,-1.378733039E0,5.081719756E-1,1.993354216E0
2.272164950E-1,1.377730966E0,-1.225721955E0,3.744060099E-1,1.881679246E0
2.322278600E-1,1.347658992E0,-1.084692001E0,2.460680008E-1,1.747366864E0
2.372391700E-1,1.331930995E0,-9.418979883E-1,1.121679991E-1,1.635173892E0
2.422506440E-1,1.334969044E0,-8.039770126E-1,6.370000076E-3,1.558384407E0
2.472619540E-1,1.321120024E0,-8.315179944E-1,-2.328809947E-1,1.578294602E0
2.522733370E-1,1.123432040E0,-1.206995010E0,-6.013640165E-1,1.755156741E0
2.572847210E-1,1.299968004E0,-9.109799862E-1,-2.719309926E-1,1.610511662E0
2.622961110E-1,1.375579953E0,-6.498720050E-1,-1.343899965E-2,1.521425134E0
2.673074950E-1,1.214030027E0,-5.703120232E-1,-2.314399928E-2,1.341514203E0
2.723188750E-1,9.035410285E-1,-5.313100219E-1,-7.015399635E-2,1.050522876E0
2.773302600E-1,6.291120052E-1,-5.303990245E-1,-5.157800019E-2,8.244788235E-1
2.823416540E-1,4.495440125E-1,-5.172020197E-1,5.132799968E-2,6.871843362E-1
2.873528090E-1,3.129270077E-1,-5.755640268E-1,1.293659955E-1,6.677820168E-1
2.923644230E-1,3.430829942E-1,-4.875569940E-1,3.068430126E-1,6.705001101E-1
2.973758190E-1,3.011870086E-1,-4.496099949E-1,3.974789977E-1,6.714553710E-1
3.023872040E-1,1.844889969E-1,-4.908010066E-1,3.181380033E-1,6.132973236E-1
3.073983580E-1,1.294039935E-1,-5.177199841E-1,2.735100091E-1,5.996558183E-1
3.124097400E-1,1.594389975E-1,-4.391199946E-1,3.904969990E-1,6.088801769E-1
3.174213560E-1,1.167510003E-1,-3.747240007E-1,4.950099885E-1,6.317307666E-1
3.224327420E-1,1.241839975E-1,-2.696770132E-1,5.067840219E-1,5.873477688E-1
3.274438910E-1,8.059500158E-2,-1.361140013E-1,4.380390048E-1,4.657260411E-1
3.324552740E-1,-7.922999561E-3,3.310300037E-2,3.467440009E-1,3.484106553E-1
3.374666580E-1,-1.099390015E-1,2.309180051E-1,3.027719855E-1,3.963339304E-1
3.424780430E-1,-2.298959941E-1,4.310629964E-1,2.908009887E-1,5.685355661E-1
3.474894280E-1,-2.952849865E-1,6.480219960E-1,3.424139917E-1,7.901728117E-1
3.525008120E-1,-3.053489923E-1,8.579139709E-1,4.115279913E-1,9.993045964E-1
3.575121970E-1,1.797198057E0,1.117673039E0,8.204659820E-1,2.269863059E0
3.625235820E-1,2.791737080E0,1.738754034E0,1.066545010E0,3.457539554E0
3.675348910E-1,1.793866992E0,1.424240947E0,6.545969844E-1,2.382208696E0
3.725463600E-1,7.116760015E-1,1.033277988E0,6.940919757E-1,1.433844414E0
3.775576700E-1,2.517700009E-2,8.513780236E-1,6.810010076E-1,1.090523174E0
3.825690620E-1,-3.339200020E-1,5.979520082E-1,7.099059820E-1,9.864155692E-1
3.875804470E-1,-4.691970050E-1,4.142760038E-1,7.744669914E-1,9.957758572E-1
3.925918310E-1,-3.927929997E-1,3.529720008E-1,8.711630106E-1,1.018724970E0
3.976032160E-1,-1.139139980E-1,4.067920148E-1,1.024889946E0,1.108537570E0
4.026146010E-1,2.640300095E-1,5.301830173E-1,1.164453030E0,1.306429001E0
4.076259810E-1,7.413200140E-1,7.613729835E-1,1.284134984E0,1.666807379E0
4.126373660E-1,1.343644977E0,1.106037021E0,1.565284967E0,2.340687237E0
4.176487660E-1,2.158587933E0,1.501026988E0,1.827561021E0,3.201962393E0
4.226601510E-1,2.948419094E0,1.833853006E0,1.902004957E0,3.959016906E0
4.276715360E-1,3.448776960E0,2.087728977E0,1.827793002E0,4.426454796E0
4.326826940E-1,3.679285049E0,2.260241032E0,1.667778015E0,4.628964409E0
4.376943070E-1,3.780963898E0,2.387247086E0,1.360223055E0,4.673846746E0
4.427054390E-1,4.086334229E0,2.466340065E0,5.464810133E-1,4.804123462E0
4.477168220E-1,4.633509159E0,2.550192118E0,-5.036259890E-1,5.312864209E0
4.527282210E-1,4.990157127E0,2.899648905E0,-1.727160066E-1,5.774033490E0
4.577396060E-1,5.004207134E0,3.184454918E0,1.307920069E-1,5.932954468E0
4.627509900E-1,4.747608185E0,3.442843914E0,3.407230079E-1,5.874440387E0
4.677623700E-1,4.301359177E0,3.722630978E0,4.268769920E-1,5.704550476E0
4.727737550E-1,3.643251896E0,4.045319080E0,3.683179915E-1,5.456514362E0
4.777851300E-1,2.772627115E0,4.384562016E0,1.271190047E-1,5.189220021E0
4.827965150E-1,1.760262012E0,4.745174885E0,-3.880540133E-1,5.076001670E0
4.878079000E-1,7.968180180E-1,5.129620075E0,-1.085355997E0,5.303387475E0
4.928192270E-1,-5.571100116E-2,5.490146160E0,-1.959697962E0,5.829684784E0
4.978306100E-1,-7.991480231E-1,5.735960007E0,-3.006709099E0,6.525348601E0
5.028420480E-1,-1.495205998E0,5.831296921E0,-4.141017914E0,7.306688314E0
5.078533570E-1,-2.023890972E0,5.726004124E0,-5.025298119E0,7.882694912E0
5.128647400E-1,-2.320116997E0,5.393823147E0,-5.505273819E0,8.048870159E0
5.178761240E-1,-2.462563992E0,4.784503937E0,-5.690433025E0,7.831776768E0
5.228875090E-1,-2.398583889E0,4.046373844E0,-5.507215977E0,7.242635831E0
5.278988990E-1,-2.185858965E0,3.267858028E0,-5.012411118E0,6.370332858E0
5.329102830E-1,-1.896615028E0,2.506234884E0,-4.324729919E0,5.346180949E0
5.379216630E-1,-1.617563963E0,1.804376960E0,-3.711182117E0,4.432286328E0
5.429330480E-1,-1.332695961E0,1.188410044E0,-3.236208916E0,3.696139216E0
5.479444190E-1,-1.049296975E0,6.469060183E-1,-2.871800900E0,3.125180306E0
5.529558040E-1,-7.908570170E-1,1.652590036E-1,-2.692836046E0,2.811428699E0
5.579671890E-1,-6.198760271E-1,-2.900669873E-1,-2.675791979E0,2.761928287E0
5.629785790E-1,-5.614899993E-1,-7.691429853E-1,-2.848993063E0,3.003932993E0
5.679899640E-1,-6.624950171E-1,-1.266559958E0,-3.063779116E0,3.380801125E0
5.730011180E-1,-9.913139939E-1,-1.757580996E0,-3.281303883E0,3.852109754E0
5.780124750E-1,-1.383535981E0,-2.188822985E0,-3.352562904E0,4.236129825E0
5.830240910E-1,-1.882222056E0,-2.541115046E0,-3.199410915E0,4.498472602E0
5.880352370E-1,-2.425021887E0,-2.804847956E0,-2.949856043E0,4.738096018E0
5.930468510E-1,-3.088805914E0,-3.049418926E0,-2.497262001E0,5.007593760E0
5.980582370E-1,-3.716178894E0,-3.291575909E0,-1.835337996E0,5.292723599E0
6.030694050E-1,-4.331917763E0,-3.497834921E0,-9.667009711E-1,5.651094709E0
6.080807880E-1,-4.659418106E0,-3.632314920E0,-8.014400303E-2,5.908494887E0
6.130921680E-1,-4.548778057E0,-3.659118891E0,6.669319868E-1,5.875825997E0
6.181035520E-1,-3.940068007E0,-3.487282038E0,1.217735052E0,5.400754629E0
6.231149520E-1,-2.957070112E0,-3.138290882E0,1.524906993E0,4.573671900E0
6.281263360E-1,-1.840276003E0,-2.662347078E0,1.648844004E0,3.632271229E0
6.331377450E-1,-7.463560104E-1,-2.107270956E0,1.546926975E0,2.718569705E0
6.381491300E-1,3.546690047E-1,-1.501747012E0,1.186010003E0,1.946189590E0
6.431605150E-1,1.355103016E0,-8.814780116E-1,5.923159719E-1,1.721669503E0
6.481719000E-1,2.249025106E0,-2.263749987E-1,-8.556900173E-2,2.262008316E0
6.531832850E-1,3.098069906E0,4.134399891E-1,-8.787860274E-1,3.246726759E0
6.581946840E-1,3.704336882E0,9.551230073E-1,-1.691427946E0,4.182738360E0
6.632060690E-1,4.083180904E0,1.405763030E0,-2.495692015E0,4.987686300E0
6.682173920E-1,4.134685993E0,1.681532025E0,-3.177520037E0,5.479033838E0
6.732287740E-1,3.794209957E0,1.722558975E0,-3.692218065E0,5.567379353E0
6.782401390E-1,3.080002069E0,1.519268990E0,-4.016674042E0,5.284719611E0
6.832515230E-1,2.146189928E0,1.102785945E0,-4.144501209E0,4.795743771E0
6.882629080E-1,1.249541998E0,5.688599944E-1,-4.143253803E0,4.364803429E0
6.932743170E-1,4.648000002E-1,-1.917300001E-2,-3.879228115E0,3.907021553E0
6.982857020E-1,-2.268349975E-1,-5.878829956E-1,-3.380561113E0,3.438786701E0
7.032970870E-1,-8.077340126E-1,-1.132943034E0,-2.724806070E0,3.059503599E0
7.083084720E-1,-1.331920028E0,-1.643751025E0,-1.979447961E0,2.897264679E0
7.133196310E-1,-1.804859042E0,-2.125895023E0,-1.117115974E0,3.004146120E0
7.183312450E-1,-2.186444998E0,-2.596039057E0,-1.769970059E-1,3.398718649E0
7.233424010E-1,-2.498590946E0,-3.073265076E0,6.604449749E-1,4.015482849E0
7.283538020E-1,-2.705797911E0,-3.507267952E0,1.348683000E0,4.630466138E0
7.333651870E-1,-2.815454006E0,-3.831011057E0,2.001468897E0,5.158420759E0
7.383768020E-1,-2.688812017E0,-4.106682777E0,2.552896023E0,5.532796002E0
7.433879730E-1,-2.370934010E0,-4.183527946E0,2.716422081E0,5.522878152E0
7.483993560E-1,-1.983191967E0,-4.185995102E0,2.599737883E0,5.311708052E0
7.534107400E-1,-1.594203949E0,-4.133261204E0,2.273974895E0,4.979587958E0
7.584221200E-1,-1.189146996E0,-4.061251163E0,1.831666946E0,4.611164212E0
7.634334300E-1,-8.179180026E-1,-4.070501804E0,1.248052955E0,4.335390522E0
7.684448990E-1,-4.014750123E-1,-4.070116997E0,6.465380192E-1,4.140657673E0
7.734562860E-1,1.083550006E-1,-4.057751179E0,1.434859931E-1,4.061732840E0
7.784676710E-1,5.829120278E-1,-4.088466167E0,-2.953259945E-1,4.140357409E0
7.834790640E-1,9.723240137E-1,-4.147934914E0,-6.463890076E-1,4.309129469E0
7.884904490E-1,1.291208029E0,-4.236184120E0,-9.174190164E-1,4.522624429E0
7.935017380E-1,1.513265967E0,-4.360404968E0,-1.060857058E0,4.735876167E0
7.985131970E-1,1.686246037E0,-4.479931831E0,-1.093570948E0,4.910103088E0
8.035245070E-1,1.771806955E0,-4.613903046E0,-1.017897010E0,5.046138675E0
8.085358940E-1,1.843822956E0,-4.724024773E0,-8.218780160E-1,5.137273267E0
8.135472790E-1,1.890123010E0,-4.764811993E0,-5.600749850E-1,5.156518429E0
8.185586590E-1,1.867486000E0,-4.757791996E0,-2.921360135E-1,5.119514829E0
8.235700430E-1,1.814046979E0,-4.695758820E0,4.689599946E-2,5.034194729E0
8.285814230E-1,1.679175019E0,-4.533225060E0,4.121629894E-1,4.851766329E0
8.335928080E-1,1.517470002E0,-4.284514904E0,8.115000129E-1,4.617176133E0
8.386039580E-1,1.337947011E0,-3.961580038E0,1.094339013E0,4.322244380E0
8.436155720E-1,1.144922018E0,-3.605092049E0,1.375779986E0,4.024960332E0
8.486267280E-1,9.451529980E-1,-3.179153919E0,1.627117038E0,3.694298808E0
8.536381100E-1,7.311570048E-1,-2.688551903E0,1.855597019E0,3.347557647E0
8.586494950E-1,5.170410275E-1,-2.157215118E0,1.977411032E0,2.971710430E0
8.636608800E-1,3.266269863E-1,-1.573178053E0,1.963729024E0,2.537283203E0
8.686722640E-1,1.960230023E-1,-1.018095970E0,1.929649949E0,2.190546358E0
8.736836490E-1,4.707000032E-2,-4.862290025E-1,1.711935043E0,1.780268469E0
8.786950190E-1,-8.724799752E-2,5.331800133E-2,1.521929979E0,1.525360903E0
8.837064040E-1,-3.373650014E-1,5.096020103E-1,1.108734965E0,1.266018395E0
8.887177890E-1,-5.378519893E-1,1.081763983E0,5.363649726E-1,1.321811432E0
8.937291930E-1,-8.288379908E-1,1.443333983E0,8.148099780E-1,1.853132673E0
8.987405780E-1,-1.151013017E0,1.979576945E0,1.061590016E-1,2.292340634E0
9.037519570E-1,-1.431738019E0,2.513362885E0,-9.506899863E-2,2.894115557E0
9.087633420E-1,-1.684761047E0,3.027945042E0,-1.262180060E-1,3.467391231E0
9.137747270E-1,-1.888005972E0,3.480237961E0,-3.729699925E-2,3.959547181E0
9.187861110E-1,-2.062705994E0,3.817595005E0,-2.428000048E-2,4.339283023E0
9.237974950E-1,-2.203994989E0,3.975415945E0,-5.329399928E-2,4.545807530E0
9.288088600E-1,-2.283195019E0,4.023106098E0,-1.480150074E-1,4.628203821E0
9.338201690E-1,-2.355559111E0,3.948707104E0,-2.913079858E-1,4.607147367E0
9.388315560E-1,-2.411746979E0,3.792908907E0,-3.754850030E-1,4.510395820E0
9.438429410E-1,-2.411387920E0,3.594005108E0,-3.217659891E-1,4.339953660E0
9.488543210E-1,-2.390944958E0,3.347212076E0,-1.591790020E-1,4.116525772E0
9.538657060E-1,-2.341541052E0,3.131511927E0,1.502899975E-1,3.913025495E0
9.588770910E-1,-2.240185022E0,2.980417967E0,5.441089869E-1,3.767940390E0
9.638884800E-1,-2.004117012E0,2.972923040E0,8.428459764E-1,3.683089157E0
9.688998650E-1,-1.593688011E0,3.113847017E0,9.226099849E-1,3.617608866E0
9.739110200E-1,-1.011765003E0,3.453465939E0,6.644309759E-1,3.659448583E0
9.789224020E-1,-2.989540100E-1,3.984611988E0,2.557080090E-1,4.003984613E0
9.839337870E-1,3.996909857E-1,4.647461891E0,-1.640200019E-1,4.667500131E0
9.889451770E-1,9.799680114E-1,5.427640915E0,-4.641270041E-1,5.534892689E0
9.939567920E-1,1.481605053E0,6.334692955E0,-5.313090086E-1,6.527310137E0
9.989681790E-1,1.882472992E0,7.313529968E0,-4.962430000E-1,7.568202050E0
1.003979332E0,2.244323015E0,8.318628311E0,-5.644739866E-1,8.634534942E0
1.008990715E0,2.384655952E0,9.146544456E0,-9.180170298E-1,9.496768649E0
1.014002086E0,2.256768942E0,9.672818184E0,-1.662778974E0,1.007081186E1
1.019013470E0,1.766991973E0,9.670144081E0,-2.848121881E0,1.023453689E1
1.024024859E0,9.829840064E-1,9.033288956E0,-4.194578171E0,1.000804941E1
1.029036474E0,1.651940048E-1,7.941758156E0,-5.444932938E0,9.630477992E0
1.034047626E0,-3.876050115E-1,6.606164932E0,-6.365671158E0,9.182234044E0
1.039059009E0,-6.245989799E-1,5.131815910E0,-6.820411205E0,8.558251424E0
1.044070388E0,-6.567270160E-1,3.652762890E0,-6.666053772E0,7.629563552E0
1.049081773E0,-5.655879974E-1,2.212146997E0,-5.920340061E0,6.345384981E0
1.054093088E0,-4.801329970E-1,8.148279786E-1,-4.692728996E0,4.787084474E0
1.059104470E0,-3.457379937E-1,-5.111820102E-1,-3.076646090E0,3.137928133E0
1.064115855E0,-1.879079938E-1,-1.757730961E0,-1.394366980E0,2.251485469E0
1.069127254E0,7.544999942E-3,-2.901259899E0,1.510239989E-1,2.905197786E0
1.074138638E0,2.416249961E-1,-3.886863947E0,1.369433999E0,4.128128324E0
1.079149995E0,4.914270043E-1,-4.654841900E0,2.019499063E0,5.097786783E0
1.084161380E0,6.932659745E-1,-5.202870846E0,1.906278014E0,5.584297504E0
1.089172765E0,7.687039971E-1,-5.518963814E0,1.227854967E0,5.705917563E0
1.094184160E0,7.296339869E-1,-5.579108238E0,9.982699901E-2,5.627502103E0
1.099195545E0,6.502550244E-1,-5.368815899E0,-1.202993035E0,5.540235374E0
1.104206920E0,4.513210058E-1,-4.885564804E0,-2.753384113E0,5.626149499E0
1.109218305E0,8.468700200E-2,-4.189098835E0,-4.208259106E0,5.938448083E0
1.114229689E0,-4.457100034E-1,-3.332053900E0,-5.420709133E0,6.378505162E0
1.119240848E0,-9.959710240E-1,-2.403379917E0,-6.103622913E0,6.634938280E0
1.124252231E0,-1.508437991E0,-1.471182942E0,-6.608431816E0,6.936219106E0
1.129263615E0,-1.923117042E0,-6.205360293E-1,-6.696510792E0,6.994762391E0
1.134274981E0,-2.233232021E0,2.011069953E-1,-6.260762215E0,6.650181411E0
1.139286366E0,-2.439121962E0,9.338889718E-1,-5.298577785E0,5.907316743E0
1.144297740E0,-2.524152994E0,1.546738029E0,-3.887480974E0,4.886333512E0
1.149309125E0,-2.574503899E0,1.924872994E0,-2.245429993E0,3.921117471E0
1.154320510E0,-2.571372032E0,2.001399040E0,-7.310519814E-1,3.339459424E0
1.159331890E0,-2.508421898E0,1.735710979E0,4.217950106E-1,3.079412939E0
1.164343275E0,-2.278662920E0,1.261847973E0,1.136137962E0,2.841720338E0
1.169354660E0,-1.864007950E0,6.833720207E-1,1.338611960E0,2.394452951E0
1.174366036E0,-1.391525030E0,3.561399877E-2,1.243605971E0,1.866592103E0
1.179377421E0,-8.922380209E-1,-5.955309868E-1,9.739230275E-1,1.448886436E0
1.184388809E0,-3.860650063E-1,-1.172394037E0,7.315449715E-1,1.434821248E0
1.189400193E0,-8.199699968E-2,-1.665603995E0,5.467839837E-1,1.754973761E0
1.194411502E0,1.754480004E-1,-2.130203962E0,4.888829887E-1,2.192614307E0
1.199422952E0,5.489820242E-1,-2.568563938E0,4.691590071E-1,2.668147699E0
1.204434262E0,1.008268952E0,-2.904076099E0,3.868480027E-1,3.098373065E0
1.209445649E0,1.633412957E0,-3.189327955E0,2.917219996E-1,3.595128985E0
1.214457033E0,2.042802095E0,-3.493669987E0,2.357639968E-1,4.053930813E0
1.219468418E0,2.179718971E0,-3.879300117E0,1.994650066E-1,4.454203687E0
1.224479802E0,2.255028009E0,-4.240930080E0,1.250330061E-1,4.804817637E0
1.229491187E0,2.223196983E0,-4.626430035E0,2.520000096E-3,5.132880872E0
1.234502348E0,2.081651926E0,-5.011879921E0,-1.633110046E-1,5.429446157E0
1.239513961E0,1.885254979E0,-5.366189957E0,-3.176180124E-1,5.696583379E0
1.244525343E0,1.667389989E0,-5.677398205E0,-4.342269897E-1,5.933093024E0
1.249536728E0,1.466107965E0,-5.931169987E0,-4.941779971E-1,6.129637988E0
1.254548112E0,1.309942007E0,-6.089220047E0,-5.168129802E-1,6.249931560E0
1.259559502E0,1.201233983E0,-6.137206078E0,-5.501149893E-1,6.277809174E0
1.264570886E0,1.077728033E0,-6.058378220E0,-6.037999988E-1,6.183042843E0
1.269582026E0,9.658330083E-1,-5.850343227E0,-6.563420296E-1,5.965746738E0
1.274593409E0,8.057379723E-1,-5.551390171E0,-6.766440272E-1,5.650220673E0
1.279604794E0,6.094809771E-1,-5.195012093E0,-6.647089720E-1,5.272708575E0
1.284616187E0,4.224619865E-1,-4.774036884E0,-5.990520120E-1,4.829986089E0
1.289627572E0,2.494390011E-1,-4.312392235E0,-5.538449883E-1,4.354961639E0
1.294638956E0,-1.244500000E-2,-3.874684095E0,-5.099999905E-1,3.908123809E0
1.299650326E0,-2.510499954E-1,-3.417843103E0,-4.986819923E-1,3.463143270E0
1.304661711E0,-3.490110040E-1,-2.807852030E0,-5.891150236E-1,2.890138096E0
1.309673096E0,-4.161989987E-1,-2.207423925E0,-7.262060046E-1,2.360787401E0
1.314684481E0,-4.618709981E-1,-1.559124947E0,-9.076269865E-1,1.862251907E0
1.319695790E0,-4.127050042E-1,-8.809379935E-1,-1.070376039E0,1.446403136E0
1.324707172E0,-3.023580015E-1,-2.480729967E-1,-1.260900974E0,1.320163566E0
1.329718557E0,-2.474139929E-1,2.509010136E-1,-1.424957037E0,1.467878592E0
1.334729956E0,-3.943929970E-1,5.583919883E-1,-1.488562942E0,1.638037570E0
1.339741340E0,-5.957859755E-1,7.819700241E-1,-1.477339029E0,1.774533363E0
1.344752725E0,-8.138309717E-1,9.534620047E-1,-1.448989987E0,1.915980853E0
1.349764119E0,-9.699649811E-1,1.122480035E0,-1.456866980E0,2.079243826E0
1.354775504E0,-1.025817037E0,1.253141999E0,-1.429232001E0,2.159946661E0
1.359786903E0,-1.043465018E0,1.340669036E0,-1.488350034E0,2.258627577E0
1.364798288E0,-1.013319969E0,1.380272985E0,-1.574980974E0,2.326485749E0
1.369809673E0,-1.019140959E0,1.333691955E0,-1.689532995E0,2.381576005E0
1.374821068E0,-1.051579952E0,1.244022012E0,-1.739459038E0,2.383092299E0
1.379832453E0,-1.081943989E0,1.209419012E0,-1.818750024E0,2.437447187E0
1.384843607E0,-1.141077995E0,1.002622008E0,-1.226642966E0,1.952424864E0
1.389854995E0,-1.046399951E0,7.672520280E-1,-5.844129920E-1,1.423083651E0
1.394866610E0,-9.659519792E-1,5.392720103E-1,-1.275130063E-1,1.113614428E0
1.399877997E0,-9.343259931E-1,2.424969971E-1,9.354959726E-1,1.344218200E0
1.404889146E0,-9.257069826E-1,-8.369000256E-2,2.161334991E0,2.352723184E0
1.409900528E0,-9.340990186E-1,-3.709450066E-1,3.352624893E0,3.500033550E0
1.414911913E0,-8.256530166E-1,-6.158699989E-1,4.423826218E0,4.542162168E0
1.419923306E0,-6.224970222E-1,-8.017830253E-1,5.030340195E0,5.131732752E0
1.424934691E0,-3.341529965E-1,-9.633550048E-1,5.055387974E0,5.157194844E0
1.429946067E0,3.894900158E-2,-1.069149971E0,4.509613037E0,4.634782458E0
1.434957451E0,4.631850123E-1,-1.131049037E0,3.584188938E0,3.786848640E0
1.439968836E0,1.005457044E0,-1.108114958E0,2.472260952E0,2.889798754E0
1.444980211E0,1.664304972E0,-1.015733957E0,1.368669987E0,2.382201512E0
1.449991596E0,2.456707001E0,-9.031820297E-1,4.852760136E-1,2.662074356E0
1.455002967E0,3.284317970E0,-8.184319735E-1,-9.744700044E-2,3.386158789E0
1.460014276E0,3.738934994E0,-9.578760266E-1,-4.178949893E-1,3.882241310E0
1.465025658E0,4.480191231E0,-1.091565967E0,-3.673259914E-1,4.625857554E0
1.470037043E0,5.600506783E0,-9.711409807E-1,-4.100299999E-2,5.684230139E0
1.475048427E0,6.519355774E0,-8.701540232E-1,5.126140118E-1,6.597116101E0
1.480059821E0,6.934442997E0,-7.304909825E-1,1.070531964E0,7.054513126E0
1.485071206E0,6.684781075E0,-6.026440263E-1,1.354789019E0,6.847257197E0
1.490082591E0,5.611070156E0,-6.709390283E-1,1.433451056E0,5.830012814E0
1.495093967E0,4.714682102E0,-4.448289871E-1,1.041391015E0,4.848772566E0
1.500105352E0,4.088697910E0,6.849300116E-2,2.768769860E-1,4.098634255E0
1.505116752E0,3.626296043E0,7.636100054E-1,-9.289270043E-1,3.820474920E0
1.510128137E0,3.262070894E0,1.525473952E0,-2.745443106E0,4.528314824E0
1.515139300E0,3.064990997E0,2.394630909E0,-4.878330231E0,6.239113146E0
1.520150682E0,3.006594896E0,3.030891895E0,-6.696975231E0,7.942002002E0
1.525162067E0,2.216691971E0,3.945329905E0,-7.504960060E0,8.763776404E0
1.530173447E0,7.259590030E-1,4.328114033E0,-7.325337887E0,8.539330343E0
1.535184831E0,-1.057824016E0,4.604627132E0,-6.561256886E0,8.085275171E0
1.540196216E0,-2.881037951E0,4.962076187E0,-6.435162067E0,8.621710422E0
1.545207591E0,-4.755153179E0,5.466469765E0,-7.396368980E0,1.035374558E1
1.550218976E0,-6.593604088E0,6.150652885E0,-9.429932594E0,1.304721329E1
1.555230361E0,-8.078131676E0,7.035377979E0,-1.170813370E1,1.586925170E1
1.560241736E0,-8.953421593E0,8.035628319E0,-1.360298443E1,1.815974301E1
1.565253121E0,-9.356486320E0,9.082481384E0,-1.455919361E1,1.954495902E1
1.570264425E0,-7.349021912E0,9.826633453E0,-1.491777802E1,1.931608006E1
1.575275807E0,-6.639834881E0,1.027490997E1,-1.297050285E1,1.782961375E1
1.580287178E0,-7.983414173E0,9.139743805E0,-1.217310047E1,1.718878104E1
1.585298563E0,-9.688082695E0,7.007484913E0,-1.052211094E1,1.592729135E1
1.590310029E0,-1.081557846E1,4.612602234E0,-7.329461098E0,1.385546234E1
1.595321416E0,-1.098849201E1,2.248613119E0,-3.220860958E0,1.166949712E1
1.600332723E0,-9.937595367E0,3.420589864E-1,2.691462040E0,1.030129962E1
1.605344096E0,-7.796976089E0,-8.442990184E-1,7.946310043E0,1.116465496E1
1.610355558E0,-5.495309830E0,-1.549649954E0,8.908145905E0,1.058087466E1
1.615366867E0,-4.226234913E0,-2.147744894E0,7.522498131E0,8.891672947E0
1.620378250E0,-3.786793947E0,-2.547044039E0,5.845734119E0,7.416188315E0
1.625389635E0,-3.751580954E0,-2.529498100E0,3.881445885E0,5.961404402E0
1.630401033E0,-3.855411053E0,-2.229342937E0,1.977818966E0,4.872979805E0
1.635412418E0,-3.651386976E0,-1.643154025E0,2.785249949E-1,4.013746152E0
1.640423802E0,-3.060794115E0,-8.585720062E-1,-1.219239950E0,3.404725035E0
1.645435187E0,-1.694221973E0,1.486770064E-1,-2.385473967E0,2.929672165E0
1.650446353E0,9.774799645E-2,1.171336055E0,-3.420171022E0,3.616511115E0
1.655457736E0,1.748124957E0,1.950402021E0,-4.431849957E0,5.147941622E0
1.660469120E0,3.052229881E0,2.414273024E0,-5.162946224E0,6.465356540E0
1.665480495E0,3.794889927E0,2.563030958E0,-5.750511169E0,7.351101683E0
1.670491879E0,4.255939960E0,2.461349964E0,-6.149665833E0,7.873351157E0
1.675503260E0,4.609930038E0,2.205009937E0,-6.487874985E0,8.258695151E0
1.680514645E0,4.686927795E0,1.760601997E0,-6.651035786E0,8.324859673E0
1.685526030E0,4.340755939E0,1.188017011E0,-6.479438782E0,7.889022339E0
1.690537415E0,3.807641029E0,6.068680286E-1,-5.918177128E0,7.063373099E0
1.695548800E0,3.123560905E0,-1.062699966E-2,-4.921696186E0,5.829222848E0
1.700560092E0,2.469337940E0,-6.038690209E-1,-3.693685055E0,4.483926509E0
1.705571475E0,1.919963002E0,-1.168537974E0,-2.461627007E0,3.333368633E0
1.710582860E0,1.340803027E0,-1.752145052E0,-1.127920032E0,2.477896010E0
1.715594239E0,6.957749724E-1,-2.402843952E0,1.060070023E-1,2.503796988E0
1.720605701E0,5.850299820E-2,-3.061113119E0,1.062654972E0,3.240844291E0
1.725617087E0,-5.597469807E-1,-3.731977940E0,1.705279946E0,4.141129764E0
1.730628410E0,-1.116670012E0,-4.362948895E0,1.984640002E0,4.921490720E0
1.735639793E0,-1.581943035E0,-4.939703941E0,1.948886991E0,5.540882538E0
1.740651186E0,-1.972954988E0,-5.404778957E0,1.739091039E0,6.010709160E0
1.745662342E0,-2.170386076E0,-5.767634869E0,1.330790043E0,6.304537242E0
1.750673956E0,-2.207823038E0,-5.980224133E0,8.209930062E-1,6.427409491E0
1.755685352E0,-2.149435997E0,-6.099757195E0,2.802419960E-1,6.473457230E0
1.760696737E0,-2.009025097E0,-6.121246815E0,-2.735559940E-1,6.448308095E0
1.765708126E0,-1.824265003E0,-6.092362881E0,-7.914530039E-1,6.408683650E0
1.770719280E0,-1.616054058E0,-5.996198177E0,-1.241140008E0,6.332965484E0
1.775730663E0,-1.378911972E0,-5.875697136E0,-1.575829029E0,6.237664001E0
1.780742057E0,-1.162606001E0,-5.745111942E0,-1.846848965E0,6.145633819E0
1.785753441E0,-9.165099859E-1,-5.575685024E0,-2.083579063E0,6.022421088E0
1.790764826E0,-6.643900275E-1,-5.329101086E0,-2.219507933E0,5.810933484E0
1.795776441E0,-4.611459970E-1,-5.060385227E0,-2.271814108E0,5.566084227E0
1.800787597E0,-2.302439958E-1,-4.721727848E0,-2.228307009E0,5.226191567E0
1.805798994E0,-4.111599922E-2,-4.346694946E0,-2.133985996E0,4.842452242E0
1.810810378E0,7.755099982E-2,-3.944960117E0,-1.976057053E0,4.412881820E0
1.815821763E0,1.447490007E-1,-3.497437954E0,-1.799509048E0,3.935893460E0
1.820833148E0,1.650760025E-1,-3.047238111E0,-1.544170022E0,3.420141993E0
1.825844532E0,1.001570001E-1,-2.608757973E0,-1.271898031E0,2.904027236E0
1.830855842E0,-4.305500165E-2,-2.203531981E0,-9.658809900E-1,2.406311079E0
1.835867225E0,-1.931899935E-1,-1.812414050E0,-5.519959927E-1,1.904433417E0
1.840878609E0,-3.216390014E-1,-1.423436046E0,-1.091469973E-1,1.463398404E0
1.845890004E0,-3.676159978E-1,-1.044271946E0,3.467699885E-1,1.160127081E0
1.850901388E0,-3.913950026E-1,-7.065219879E-1,7.634699941E-1,1.111417923E0
1.855912773E0,-4.537709951E-1,-4.918290079E-1,1.082497954E0,1.272637305E0
1.860924158E0,-4.493100047E-1,-4.362959862E-1,1.313621044E0,1.455277951E0
1.865935557E0,-4.915379882E-1,-4.633600116E-1,1.512992978E0,1.656942922E0
1.870946942E0,-4.286229908E-1,-5.420830250E-1,1.672616005E0,1.809755778E0
1.875958327E0,-2.524220049E-1,-6.727740169E-1,1.763502955E0,1.904280552E0
1.880969712E0,-5.461400002E-2,-8.705319762E-1,1.685081005E0,1.897447392E0
1.885981097E0,1.475159973E-1,-1.067031980E0,1.417006016E0,1.779950635E0
1.890992247E0,5.566710234E-1,-1.351343036E0,1.059962988E0,1.805417449E0
1.896003629E0,9.081220031E-1,-1.585765004E0,5.806670189E-1,1.917422856E0
1.901015014E0,1.113831997E0,-1.837162971E0,-2.409500070E-2,2.148573962E0
1.906026399E0,1.228808999E0,-2.088632107E0,-5.901089907E-1,2.494109912E0
1.911037778E0,1.296223044E0,-2.230003119E0,-1.041383028E0,2.781651794E0
1.916049163E0,1.349851966E0,-2.213306904E0,-1.388128042E0,2.940701828E0
1.921060547E0,1.359040022E0,-2.026490927E0,-1.566254973E0,2.899449930E0
1.926071922E0,1.247642994E0,-1.712581038E0,-1.556843996E0,2.629317417E0
1.931083307E0,9.895190001E-1,-1.288318992E0,-1.374289989E0,2.127812645E0
1.936094616E0,5.770949721E-1,-7.595520020E-1,-1.145091057E0,1.490366190E0
1.941106062E0,1.836560071E-1,-1.006300002E-1,-1.022994995E0,1.044210077E0
1.946117372E0,-1.797740012E-1,5.898119807E-1,-9.956430197E-1,1.171111390E0
1.951128749E0,-5.082330108E-1,1.314237952E0,-9.752939939E-1,1.713686250E0
1.956140211E0,-7.992280126E-1,2.065427065E0,-1.062924981E0,2.456534936E0
1.961151597E0,-1.067442060E0,2.817109108E0,-9.860550165E-1,3.169832925E0
1.966162900E0,-1.336797953E0,3.535828114E0,-8.979780078E-1,3.885289399E0
1.971174283E0,-1.593104005E0,4.180929184E0,-6.743419766E-1,4.524697373E0
1.976185667E0,-1.747616053E0,4.754789829E0,-3.603470027E-1,5.078586235E0
1.981197047E0,-1.836006045E0,5.142499924E0,2.531000040E-2,5.460482054E0
1.986208432E0,-1.841055036E0,5.257830143E0,3.875490129E-1,5.584304406E0
1.991219802E0,-1.838968039E0,5.098362923E0,5.447959900E-1,5.447192911E0
1.996231187E0,-1.843901992E0,4.714332104E0,3.440830112E-1,5.073785062E0
2.001242572E0,-1.777338982E0,4.254148006E0,-4.349229932E-1,4.630968271E0
2.006253957E0,-1.749881029E0,3.940445900E0,-1.943452001E0,4.729292038E0
2.011265342E0,-2.130491972E0,3.773305893E0,-3.619448900E0,5.645993601E0
2.016276703E0,-2.933810949E0,3.690057993E0,-4.651681900E0,6.622833168E0
2.021287857E0,-3.853285074E0,3.469393969E0,-4.070104122E0,6.591680206E0
2.026299471E0,-3.771317005E0,3.461601019E0,-1.855800986E0,5.445136442E0
2.031310608E0,-2.983127117E0,3.538549900E0,-3.077999922E-3,4.628216964E0
2.036322221E0,-2.919931889E0,3.383686066E0,8.049820065E-1,4.541291629E0
2.041333377E0,-4.073102951E0,3.200450897E0,3.337800130E-2,5.180170623E0
2.046344759E0,-5.727850914E0,2.642709970E0,-2.841846943E0,6.918691070E0
2.051356158E0,-6.921910763E0,2.197906017E0,-6.889875889E0,1.001069574E1
2.056367543E0,-7.130012035E0,2.191230059E0,-1.086829472E1,1.318174460E1
2.061378927E0,-6.261476994E0,2.543154955E0,-1.394678116E1,1.549794941E1
2.066390298E0,-4.810988903E0,3.058634043E0,-1.593868065E1,1.692756324E1
2.071401683E0,-3.128036976E0,3.426990986E0,-1.692545891E1,1.754992997E1
2.076413082E0,-1.226562977E0,3.641016960E0,-1.706852531E1,1.749559995E1
2.081424467E0,1.280473948E0,3.978226900E0,-1.628567886E1,1.681336489E1
2.086435871E0,4.241903782E0,4.314167023E0,-1.456987953E1,1.577615842E1
2.091447179E0,7.383336067E0,4.880824089E0,-1.201342964E1,1.492174879E1
2.096458577E0,1.064469910E1,5.129806042E0,-7.986849785E0,1.426233846E1
2.101469961E0,1.231289768E1,5.641670227E0,-3.265876055E0,1.393204359E1
2.106481361E0,1.252180767E1,5.347574234E0,2.112871885E0,1.377884049E1
2.111492746E0,1.144779015E1,4.750374794E0,7.410265923E0,1.444056789E1
2.116504130E0,9.349327087E0,4.001140118E0,1.046023369E1,1.458888371E1
2.121515510E0,6.757547855E0,3.070163012E0,9.019602776E0,1.168090699E1
2.126526666E0,4.379074097E0,2.264561892E0,5.330949783E0,7.261098822E0
2.131538067E0,1.924849987E0,1.504364967E0,1.794991016E0,3.031526707E0
2.136549452E0,-6.007940173E-1,8.062859774E-1,-1.025032997E0,1.435877144E0
2.141560842E0,-2.779023886E0,3.703860044E-1,-2.854240894E0,4.000856237E0
2.146572226E0,-4.722757816E0,4.823800176E-2,-3.954305887E0,6.159813580E0
2.151583611E0,-6.399693966E0,-3.233030140E-1,-4.492219925E0,7.825640392E0
2.156594996E0,-7.863460064E0,-8.686400056E-1,-4.605484962E0,9.154181087E0
2.161606381E0,-8.933196068E0,-1.578328013E0,-4.406786919E0,1.008528047E1
2.166617766E0,-9.399029732E0,-2.419090986E0,-3.981772900E0,1.049038972E1
2.171629151E0,-9.117278099E0,-3.173338890E0,-3.559480906E0,1.028905943E1
2.176640536E0,-7.887508869E0,-3.695478916E0,-3.020840883E0,9.219264625E0
2.181651921E0,-6.471508980E0,-4.067543030E0,-2.362494946E0,8.000419810E0
2.186663324E0,-5.239563942E0,-4.372640133E0,-1.658980966E0,7.023192285E0
2.191674708E0,-4.032423019E0,-4.584909916E0,-9.738249779E-1,6.183055024E0
2.196686092E0,-2.939897060E0,-4.716441154E0,-3.534460068E-1,5.568907969E0
2.201697490E0,-2.023602962E0,-4.827178001E0,1.338620037E-1,5.235889174E0
2.206708875E0,-1.228217006E0,-4.921987057E0,3.906239867E-1,5.087932851E0
2.211720209E0,-5.538169742E-1,-4.996085167E0,4.694800079E-1,5.048563332E0
2.216731592E0,1.144810021E-1,-5.032680988E0,4.659970105E-1,5.055505617E0
2.221742991E0,8.198750019E-1,-5.031644821E0,3.580510020E-1,5.110562116E0
2.226754452E0,1.416847944E0,-5.043063164E0,2.192559987E-1,5.242901617E0
2.231765762E0,1.821949005E0,-5.088307858E0,1.302829981E-1,5.406232393E0
2.236777150E0,1.980268955E0,-5.217511177E0,1.025480032E-1,5.581613038E0
2.241788534E0,1.942091942E0,-5.291697979E0,-3.196159899E-1,5.645878407E0
2.246799924E0,1.807904959E0,-5.428009987E0,-1.964540035E-1,5.724544255E0
2.251811080E0,1.683025956E0,-5.540245056E0,-2.270189971E-1,5.794689748E0
2.256822693E0,1.435942054E0,-5.625926971E0,-4.739759862E-1,5.825601866E0
2.261833849E0,1.056785941E0,-5.656270027E0,-6.890779734E-1,5.795258027E0
2.266845232E0,1.019227982E0,-5.559487820E0,-7.814880013E-1,5.705913949E0
2.271856601E0,1.029301047E0,-5.443277836E0,-9.495319724E-1,5.620528908E0
2.276867986E0,1.154199004E0,-5.276501179E0,-1.224424005E0,5.538307880E0
2.281879371E0,1.559488058E0,-5.001677990E0,-1.383751988E0,5.418814934E0
2.286890755E0,2.044811010E0,-4.704919815E0,-1.649971008E0,5.388870648E0
2.291902129E0,2.526844978E0,-4.371788025E0,-1.879930973E0,5.388099530E0
2.296913514E0,2.883527040E0,-4.023729801E0,-2.157955885E0,5.400176229E0
2.301924899E0,3.363527060E0,-3.553013086E0,-2.281163931E0,5.398233521E0
2.306936255E0,3.974102020E0,-2.942873955E0,-2.213713884E0,5.417981464E0
2.311947563E0,4.536324978E0,-2.305727959E0,-1.960472941E0,5.453263232E0
2.316959023E0,5.009263039E0,-1.642137051E0,-1.432917953E0,5.462836639E0
2.321970430E0,5.221308231E0,-1.038768053E0,-7.785379887E-1,5.380262086E0
2.326981814E0,5.123926163E0,-6.035130024E-1,1.417099964E-2,5.159365085E0
2.331993179E0,4.513323784E0,-4.449220002E-1,7.896059752E-1,4.603425329E0
2.337004486E0,3.616638899E0,-5.453569889E-1,1.394513011E0,3.914352783E0
2.342015869E0,2.746128082E0,-7.442749739E-1,1.691912055E0,3.310246378E0
2.347027264E0,2.052464008E0,-9.176599979E-1,1.572867990E0,2.743833466E0
2.352038648E0,1.544569969E0,-1.076182008E0,9.249160290E-1,2.097458883E0
2.357050028E0,1.193807960E0,-1.183848023E0,-1.890480071E-1,1.691866642E0
2.362061413E0,8.317059875E-1,-1.210873008E0,-1.529006004E0,2.120331967E0
2.367072798E0,5.304449797E-1,-1.135236979E0,-2.989779949E0,3.241746291E0
2.372084183E0,2.918570042E-1,-1.196025014E0,-4.464282990E0,4.630926360E0
2.377095568E0,-3.427100182E-2,-8.292319775E-1,-5.592565060E0,5.653811468E0
2.382106953E0,-6.151069999E-1,-1.772000045E-1,-6.525345802E0,6.556667927E0
2.387118338E0,-1.372864962E0,3.609510064E-1,-7.251287937E0,7.388925536E0
2.392129492E0,-2.176635027E0,8.476259708E-1,-7.752073765E0,8.096348404E0
2.397141105E0,-3.056055069E0,1.359521031E0,-7.800738811E0,8.487596599E0
2.402152266E0,-3.935669899E0,1.839280009E0,-7.550375938E0,8.710948589E0
2.407163649E0,-4.788150787E0,2.270174026E0,-7.067729950E0,8.833622401E0
2.412175264E0,-5.557743073E0,2.714457989E0,-6.443631172E0,8.931806811E0
2.417186415E0,-6.229598999E0,3.105154991E0,-5.740277767E0,9.022232543E0
2.422197797E0,-6.365749836E0,3.140849113E0,-5.161655903E0,8.776696177E0
2.427209413E0,-5.714124203E0,3.240364075E0,-4.394565105E0,7.903377582E0
2.432220559E0,-4.689001083E0,3.379724026E0,-3.723167896E0,6.875408703E0
2.437232172E0,-3.551146030E0,3.508522987E0,-3.043251991E0,5.846516430E0
2.442243318E0,-2.472558975E0,3.573839903E0,-2.245182037E0,4.891494855E0
2.447254701E0,-1.509984970E0,3.637501955E0,-1.393672943E0,4.177774450E0
2.452266085E0,-9.949020147E-1,3.385623932E0,-5.055710077E-1,3.564811562E0
2.457277470E0,-2.131289989E-1,3.410718918E0,4.449200034E-1,3.446212605E0
2.462288854E0,4.325720072E-1,3.661950111E0,6.783600152E-2,3.688034556E0
2.467300239E0,-1.439930052E-1,3.406083107E0,4.466150105E-1,3.438255529E0
2.472311606E0,-1.434069037E0,2.959717989E0,8.143190145E-1,3.388155846E0
2.477322991E0,-2.715184927E0,2.507939100E0,7.024180293E-1,3.762363460E0
2.482334376E0,-3.523350954E0,2.193624020E0,-1.860630065E-1,4.154588755E0
2.487345755E0,-3.575989008E0,2.141730070E0,-2.236119986E0,4.730215393E0
2.492357063E0,-3.020126104E0,2.373119116E0,-5.169429779E0,6.440175484E0
2.497368523E0,-2.469907999E0,2.995433092E0,-7.889582157E0,8.793097949E0
2.502379847E0,-2.226859093E0,4.003732204E0,-9.869802475E0,1.088125792E1
2.507391230E0,-2.436043024E0,5.179471016E0,-1.091156197E1,1.232166426E1
2.512402610E0,-2.883969069E0,6.150188923E0,-1.095458794E1,1.288972840E1
2.517414071E0,-3.414712906E0,6.554846764E0,-1.007262325E1,1.249335902E1
2.522425386E0,-3.909176111E0,6.328838825E0,-8.371272087E0,1.119884169E1
2.527436769E0,-4.264362812E0,5.696700096E0,-5.896658897E0,9.241632341E0
2.532448230E0,-4.024528980E0,4.951890945E0,-2.469811916E0,6.842370083E0
2.537459612E0,-3.265760899E0,4.133706093E0,2.266079932E-1,5.272956618E0
2.542470920E0,-2.019732952E0,3.427529097E0,1.973400950E0,4.440899483E0
2.547482297E0,-2.166260034E-1,3.033298969E0,3.196392059E0,4.411887539E0
2.552493682E0,1.588076949E0,2.813834906E0,3.375021935E0,4.672304392E0
2.557504838E0,2.942415953E0,2.673223019E0,2.780635118E0,4.851377599E0
2.562516220E0,3.782264948E0,2.594805956E0,1.994560003E0,5.001681286E0
2.567527836E0,3.981328011E0,2.531095982E0,1.130363941E0,4.851303148E0
2.572539222E0,3.836483002E0,2.547188997E0,9.131999686E-3,4.605090336E0
2.577550607E0,3.541800976E0,2.571968079E0,-1.367108941E0,4.585669069E0
2.582561992E0,3.126632929E0,2.479491949E0,-2.870781898E0,4.915801309E0
2.587573347E0,2.594155073E0,2.282613993E0,-4.345953941E0,5.552232240E0
2.592584732E0,1.916105032E0,1.950966954E0,-5.595748901E0,6.228172791E0
2.597596116E0,1.216943979E0,1.492251039E0,-6.467943192E0,6.748485381E0
2.602607496E0,6.658220291E-1,9.593229890E-1,-6.796881199E0,6.896463848E0
2.607618881E0,5.588330030E-1,4.503020048E-1,-6.535275936E0,6.574564456E0
2.612630256E0,8.491529822E-1,-1.009000000E-2,-5.622603893E0,5.686372933E0
2.617641640E0,1.307875037E0,-3.913710117E-1,-4.240227222E0,4.454574646E0
2.622653019E0,1.510419011E0,-7.185890079E-1,-2.440529108E0,2.958702094E0
2.627664403E0,1.556637049E0,-9.889950156E-1,-5.575649738E-1,1.926683353E0
2.632675788E0,1.480077028E0,-1.269160032E0,1.042615056E0,2.210981988E0
2.637687178E0,1.246137977E0,-1.600232005E0,2.080235958E0,2.905337152E0
2.642698333E0,1.078371048E0,-1.968076944E0,2.678759098E0,3.494561672E0
2.647709725E0,1.034973025E0,-2.327542067E0,2.930207014E0,3.882619526E0
2.652721110E0,1.072888970E0,-2.695437908E0,2.887424946E0,4.093128275E0
2.657732494E0,1.125203013E0,-3.095632076E0,2.669714928E0,4.239858201E0
2.662744125E0,1.160917997E0,-3.525631905E0,2.226279020E0,4.328294029E0
2.667755280E0,1.151142001E0,-3.997235060E0,1.515426993E0,4.427136208E0
2.672766908E0,1.086051941E0,-4.445658207E0,5.049359798E-1,4.604166163E0
2.677778294E0,1.369760036E0,-4.990231037E0,-1.640066981E0,5.428486720E0
2.682789679E0,2.733289003E0,-6.770856857E0,-6.519536972E0,9.788755472E0
2.687801075E0,6.718000174E-1,-7.175747871E0,-5.733663082E0,9.209645222E0
2.692812459E0,3.124670088E-1,-5.502968788E0,-3.043402910E0,6.296237161E0
2.697823613E0,1.248870969E0,-4.945272923E0,-3.890542030E0,6.414960660E0
2.702835010E0,1.007369995E0,-5.138319969E0,-4.831949234E0,7.124946302E0
2.707846394E0,-3.881289959E-1,-5.545862198E0,-4.603494167E0,7.217990730E0
2.712857779E0,-1.805752993E0,-5.897800922E0,-3.577647924E0,7.130523421E0
2.717869164E0,-2.331864119E0,-6.728117943E0,-1.373945951E0,7.252095476E0
2.722880548E0,-3.345217943E0,-6.096914768E0,-1.382009029E0,7.090331567E0
2.727891933E0,-2.986221075E0,-5.458978176E0,-1.066012025E0,6.313029437E0
2.732903318E0,-1.909947038E0,-4.909790993E0,-6.282129884E-1,5.305525124E0
2.737914703E0,9.898299724E-2,-4.807971954E0,3.412030041E-1,4.821079904E0
2.742926088E0,-5.168449879E-1,-4.751099110E0,5.530179739E-1,4.811018642E0
2.747937449E0,-1.614038944E0,-4.571866035E0,-4.576700181E-2,4.848626133E0
2.752948834E0,-1.667883039E0,-4.179495811E0,-1.219791055E0,4.662393086E0
2.757960224E0,-1.137603045E0,-3.535598040E0,-2.023482084E0,4.229547722E0
2.762971837E0,-2.292020023E-1,-2.826718092E0,-2.184878111E0,3.580022498E0
2.767983219E0,6.354060173E-1,-2.294462919E0,-2.031238079E0,3.129573298E0
2.772994603E0,1.213722944E0,-2.010544062E0,-2.121938944E0,3.165128069E0
2.778005757E0,5.271149874E-1,-1.939322948E0,-1.440547943E0,2.472650821E0
2.783017371E0,3.286660016E-1,-1.712821007E0,-1.218083024E0,2.127323059E0
2.788028757E0,6.060259938E-1,-1.462895036E0,-1.348021030E0,2.079540836E0
2.793040142E0,2.879939973E-1,-1.606009007E0,-9.320020080E-1,1.879051147E0
2.798051556E0,-2.889190018E-1,-1.659093022E0,-5.240060091E-1,1.763702397E0
2.803062709E0,-8.877660036E-1,-1.567270994E0,-4.915759861E-1,1.867113761E0
2.808074082E0,-7.566999793E-1,-1.466874003E0,-1.291964054E0,2.096064245E0
2.813085467E0,-4.618360102E-1,-1.319273949E0,-2.235091925E0,2.636173773E0
2.818097087E0,-6.451429725E-1,-1.114457965E0,-2.834455967E0,3.113256597E0
2.823108474E0,-1.011994958E0,-9.294589758E-1,-3.375699043E0,3.644636033E0
2.828119858E0,-1.482866049E0,-6.795780063E-1,-3.528363943E0,3.887167362E0
2.833131021E0,-1.010342002E0,-3.213000000E-1,-3.308346987E0,3.474073177E0
2.838142635E0,-1.001588941E0,-7.595580220E-1,-3.654544115E0,3.864686466E0
2.843153795E0,-1.932497978E0,-1.065397024E0,-3.710808039E0,4.317373687E0
2.848165178E0,-3.473793030E0,-1.141826034E0,-3.394459009E0,4.989324270E0
2.853176563E0,-4.643470764E0,-1.054015994E0,-2.604525089E0,5.427367815E0
2.858188178E0,-6.025477886E0,-6.602699757E-1,-1.811573029E0,6.326463233E0
2.863199565E0,-6.698916912E0,2.358919978E-1,-1.332779050E0,6.834283637E0
2.868210949E0,-6.097495079E0,8.570269942E-1,-1.208863974E0,6.274973595E0
2.873222103E0,-3.051486969E0,1.218256950E0,-5.123739839E-1,3.325394686E0
2.878233712E0,-2.457470894E0,2.245049000E0,-4.157249928E-1,3.354435195E0
2.883245098E0,-4.939517975E0,1.893460035E0,-1.121134996E0,5.407492248E0
2.888256483E0,-6.490693092E0,1.777659059E0,-1.091943026E0,6.817734823E0
2.893267867E0,-6.759316921E0,2.105127096E0,-7.359089851E-1,7.117688344E0
2.898279247E0,-6.117847919E0,2.468828917E0,-1.730580032E-1,6.599479408E0
2.903290632E0,-5.240716934E0,2.612761974E0,2.544209957E-1,5.861430641E0
2.908302007E0,-4.780736923E0,2.426919937E0,6.160240173E-1,5.396746381E0
2.913313391E0,-6.136744976E0,1.760231018E0,5.485420227E-1,6.407725844E0
2.918324760E0,-6.291291237E0,1.300778031E0,1.266245961E0,6.547957525E0
2.923336144E0,-6.156819820E0,1.277740955E0,1.791424036E0,6.538214766E0
2.928347553E0,-5.369833946E0,1.413195014E0,1.755491972E0,5.823571827E0
2.933358938E0,-4.352697849E0,1.448797941E0,1.539824009E0,4.839013538E0
2.938370323E0,-3.279592037E0,1.418001056E0,1.128775954E0,3.747077005E0
2.943381704E0,-1.568951964E0,1.552778959E0,6.793820262E-1,2.309608776E0
2.948393089E0,8.832989931E-1,1.869977951E0,2.796269953E-1,2.086917800E0
2.953404474E0,3.062138081E0,1.867262006E0,-3.423320055E-1,3.602852790E0
2.958415863E0,4.059689045E0,1.237910032E0,-1.684700966E0,4.566367674E0
2.963427247E0,5.053157806E0,1.070294023E0,-5.042830944E0,7.218730986E0
2.968438631E0,5.814336777E0,1.348158002E0,-7.197858810E0,9.350572903E0
2.973449986E0,7.053122044E0,2.210880995E0,-9.788476944E0,1.226575747E1
2.978461370E0,8.213349342E0,3.398706913E0,-1.218227482E1,1.508038911E1
2.983472741E0,9.576911926E0,4.814333916E0,-1.348643780E1,1.722727656E1
2.988484202E0,9.632310867E0,5.226088047E0,-1.290567684E1,1.693073843E1
2.993495522E0,8.417928696E0,5.939936161E0,-1.061210346E1,1.479057487E1
2.998506905E0,1.227466297E1,8.143349648E0,-3.729263067E0,1.519502871E1
3.003518366E0,1.263636398E1,8.586195946E0,2.663122892E0,1.550782638E1
3.008529762E0,1.156531906E1,8.127848625E0,5.605647087E0,1.520663696E1
3.013541069E0,9.967208862E0,7.325758934E0,7.018056870E0,1.422199419E1
3.018552452E0,7.682908058E0,6.083865166E0,7.398583889E0,1.227923186E1
3.023563914E0,4.409951210E0,4.741397858E0,5.790604115E0,8.686749641E0
3.028575529E0,1.013556004E0,3.010369062E0,4.335707188E0,5.374753434E0
3.033586685E0,-1.378254056E0,2.100616932E0,2.825207949E0,3.780737453E0
3.038598068E0,-2.605506897E0,1.887276053E0,1.946465015E0,3.760213179E0
3.043609438E0,-3.257641077E0,1.984938979E0,1.531512976E0,4.110686090E0
3.048620823E0,-3.794967890E0,2.111022949E0,1.499426961E0,4.594178968E0
3.053632207E0,-4.288695812E0,2.202835083E0,1.410830975E0,5.023528462E0
3.058643803E0,-4.171029091E0,2.293391943E0,1.334061980E0,4.943364406E0
3.063655189E0,-3.548012018E0,2.272305965E0,1.064983964E0,4.345797341E0
3.068666574E0,-2.678091049E0,2.022247076E0,6.208980083E-1,3.412794931E0
3.073677954E0,-1.863010049E0,1.547927022E0,8.536600322E-2,2.423669091E0
3.078689338E0,-1.146000028E0,1.052757978E0,-4.113239944E-1,1.609597109E0
3.083700723E0,-3.998839855E-1,5.448510051E-1,-5.928509831E-1,8.990228628E-1
3.088712098E0,4.371559918E-1,1.307550073E-1,-9.137060046E-1,1.021303528E0
3.093723482E0,1.298109055E0,-1.920569986E-1,-1.293858051E0,1.842835225E0
3.098734856E0,2.149511099E0,-4.250740111E-1,-1.577550054E0,2.699953713E0
3.103746240E0,2.825687885E0,-6.855069995E-1,-1.692325950E0,3.364282835E0
3.108757624E0,3.311789036E0,-1.007115960E0,-1.675922036E0,3.845899615E0
3.113769019E0,3.698566914E0,-1.425572038E0,-1.559165955E0,4.259419130E0
3.118780404E0,3.833630085E0,-1.975213051E0,-1.260854006E0,4.493099047E0
3.123791789E0,3.724879980E0,-2.672686100E0,-6.407650113E-1,4.629099443E0
3.128803264E0,3.377588987E0,-3.199678898E0,-6.169019938E-1,4.693252655E0
3.133814650E0,2.977016926E0,-3.919770002E0,4.414289892E-1,4.941870719E0
3.138826035E0,2.515389919E0,-4.770875931E0,1.261106968E0,5.538847748E0
3.143837419E0,1.968466997E0,-5.432404995E0,1.529461980E0,5.977051137E0
3.148849038E0,1.474832058E0,-6.105395794E0,1.747074962E0,6.519452302E0
3.153860424E0,9.861180186E-1,-6.718126774E0,1.717551947E0,7.003973214E0
3.158871578E0,5.733510256E-1,-7.249168873E0,1.665297985E0,7.460053493E0
3.163883192E0,2.787649930E-1,-7.631637096E0,1.529721975E0,7.788430138E0
3.168894578E0,5.422679782E-1,-7.501855850E0,1.489549041E0,7.667506251E0
3.173905968E0,9.633349776E-1,-7.601365089E0,1.376893997E0,7.784895798E0
3.178917353E0,6.826159954E-1,-7.683732033E0,7.867130041E-1,7.754006700E0
3.183928737E0,3.465389907E-1,-7.672736168E0,2.993890047E-1,7.686390788E0
3.188940131E0,7.009299845E-2,-7.477848053E0,-1.888950020E-1,7.480561868E0
3.193951515E0,-3.618400171E-2,-7.082676888E0,-8.392770290E-1,7.132321299E0
3.198962975E0,2.683340013E-1,-6.633395195E0,-7.504199743E-1,6.681097596E0
3.203974290E0,8.656690121E-1,-5.780775070E0,-9.727560282E-1,5.925622123E0
3.208985749E0,1.786298037E0,-4.792512894E0,-1.051612020E0,5.221582935E0
3.213997136E0,2.601788998E0,-3.917073965E0,-1.036777973E0,4.815359073E0
3.219008526E0,3.138978004E0,-3.115909100E0,-1.045007944E0,4.544679750E0
3.224019910E0,3.329826117E0,-2.443834066E0,-1.100061059E0,4.274365596E0
3.229031514E0,3.215665102E0,-1.984498978E0,-1.089077950E0,3.932534681E0
3.234042669E0,2.921335936E0,-1.733064055E0,-1.038516045E0,3.551933311E0
3.239054283E0,2.533241987E0,-1.632066965E0,-9.458670020E-1,3.158420797E0
3.244065655E0,2.066050053E0,-1.609704971E0,-8.448910117E-1,2.752009036E0
3.249077040E0,1.553490996E0,-1.591778040E0,-6.999700069E-1,2.331748189E0
3.254088439E0,1.043457985E0,-1.494547009E0,-5.231739879E-1,1.896361345E0
3.259099823E0,5.813739896E-1,-1.349148035E0,-3.243219852E-1,1.504453684E0
3.264111208E0,2.005739957E-1,-1.155616999E0,-1.060130000E-1,1.177675393E0
3.269122612E0,-9.602499753E-2,-9.345350266E-1,1.864279956E-1,9.577744586E-1
3.274134071E0,-2.948490083E-1,-6.961259842E-1,5.021359921E-1,9.075615010E-1
3.279145458E0,-4.041199982E-1,-4.886269867E-1,7.902010083E-1,1.013156917E0
3.284156857E0,-4.386940002E-1,-2.835899889E-1,1.017251015E0,1.143536329E0
3.289168242E0,-4.198009968E-1,-8.353199810E-2,1.139371991E0,1.217119142E0
3.294179627E0,-2.101510018E-1,1.465989947E-1,1.085389972E0,1.115224686E0
3.299191011E0,1.173359975E-1,4.421589971E-1,9.349470139E-1,1.040864176E0
3.304202396E0,5.297570229E-1,8.148090243E-1,7.510650158E-1,1.228273140E0
3.309213760E0,9.703090191E-1,1.229055047E0,6.743500233E-1,1.704941012E0
3.314225144E0,1.316027045E0,1.626677990E0,5.936579704E-1,2.174957069E0
3.319236735E0,1.519649982E0,1.969493985E0,7.074750066E-1,2.586264393E0
3.324248121E0,1.562741995E0,2.248054981E0,1.001786947E0,2.915388624E0
3.329259567E0,1.457857966E0,2.510329008E0,1.407747984E0,3.226275866E0
3.334270953E0,1.279405951E0,2.792269945E0,1.866453052E0,3.594064277E0
3.339282246E0,1.061175942E0,3.077181101E0,2.235054970E0,3.948494476E0
3.344293706E0,7.935900092E-1,3.360301971E0,2.439910889E0,4.227833912E0
3.349305092E0,4.021070004E-1,3.593727112E0,2.521867037E0,4.408670769E0
3.354316477E0,-2.795499936E-2,3.827574015E0,2.518866062E0,4.582116384E0
3.359327861E0,-4.236589968E-1,4.071219921E0,2.394435883E0,4.742113641E0
3.364339475E0,-5.710589886E-1,4.384243011E0,2.195326090E0,4.936309532E0
3.369350866E0,-5.480859876E-1,4.673069000E0,2.006598949E0,5.115115979E0
3.374362251E0,-2.530219853E-1,4.932701111E0,1.814955950E0,5.262093260E0
3.379373646E0,2.366819978E-1,4.995470047E0,1.767887950E0,5.304353605E0
3.384385030E0,9.349269867E-1,4.890013218E0,1.816918015E0,5.299764978E0
3.389396415E0,1.839158058E0,4.630671978E0,1.942955017E0,5.347962185E0
3.394407875E0,2.851980925E0,4.330066204E0,2.000837088E0,5.557572993E0
3.399419261E0,3.881239891E0,4.069776058E0,1.936683059E0,5.947927498E0
3.404430636E0,4.878067017E0,3.895512104E0,1.570335031E0,6.437119269E0
3.409442020E0,5.862515926E0,3.790667057E0,9.175400138E-1,7.041315886E0
3.414453405E0,6.777403831E0,3.743275881E0,2.646630108E-1,7.746958340E0
3.419464790E0,7.759078026E0,3.796303988E0,-3.235790133E-1,8.644068438E0
3.424476403E0,8.674196243E0,3.904263973E0,-8.509610295E-1,9.550345141E0
3.429487785E0,9.189570427E0,3.952462912E0,-1.342381001E0,1.009317366E1
3.434499169E0,8.959921837E0,3.854934931E0,-2.081271887E0,9.973585880E0
3.439510554E0,7.928719044E0,3.652528048E0,-3.230732918E0,9.308231948E0
3.444521934E0,6.281950951E0,3.342926025E0,-4.763498783E0,8.563234366E0
3.449533393E0,4.558473110E0,3.074448109E0,-6.785079956E0,8.733224964E0
3.454544767E0,2.689146042E0,3.028850079E0,-9.153390884E0,1.000949569E1
3.459556151E0,6.074029803E-1,3.277647018E0,-1.121802616E1,1.170282100E1
3.464567536E0,-1.362763047E0,3.791735888E0,-1.264089680E1,1.326750376E1
3.469579129E0,-3.202477932E0,4.496703148E0,-1.342833900E1,1.451883234E1
3.474590516E0,-4.786808968E0,4.923550129E0,-1.329140091E1,1.496048877E1
3.479601901E0,-6.524188995E0,4.888270855E0,-1.209545040E1,1.458630023E1
3.484613271E0,-8.372462273E0,4.319156170E0,-9.733626366E0,1.354609600E1
3.489624656E0,-9.790034294E0,3.383642912E0,-5.550847054E0,1.175183874E1
3.494636115E0,-1.010346031E1,2.237044096E0,1.279749036E0,1.042698586E1
3.499647502E0,-8.369153976E0,1.695152998E0,4.730603218E0,9.761910099E0
3.504658887E0,-6.041045189E0,1.040413976E0,5.398814201E0,8.168468828E0
3.509670285E0,-3.586416006E0,4.692040086E-1,5.506730080E0,6.588369172E0
3.514681899E0,-1.788648963E0,-1.523180008E-1,5.244766235E0,5.543468116E0
3.519693309E0,-9.334470034E-1,-7.706750035E-1,4.529179096E0,4.688147454E0
3.524704694E0,-4.555740058E-1,-1.126814961E0,3.922418118E0,4.106412488E0
3.529716079E0,1.941639930E-1,-1.092231035E0,3.385039091E0,3.562184434E0
3.534727486E0,1.005776048E0,-7.943639755E-1,2.630418062E0,2.926038066E0
3.539738871E0,1.851806998E0,-4.473730028E-1,1.684481978E0,2.542992587E0
3.544750335E0,2.633757114E0,-1.053289995E-1,7.097659707E-1,2.729750624E0
3.549761722E0,3.302831888E0,1.618780047E-1,-3.122969866E-1,3.321510557E0
3.554773107E0,3.841428041E0,3.181459904E-1,-1.396034956E0,4.099597525E0
3.559784486E0,4.279554844E0,2.319229990E-1,-2.306318998E0,4.866979069E0
3.564795871E0,5.008759975E0,1.529770046E-1,-2.977814913E0,5.829104572E0
3.569807480E0,5.425300121E0,-6.880600005E-2,-3.750689030E0,6.595929341E0
3.574818867E0,5.472319126E0,-5.026850104E-1,-4.473136902E0,7.085754905E0
3.579830252E0,5.360873222E0,-1.026854992E0,-4.765758991E0,7.246092164E0
3.584841715E0,4.944007874E0,-1.653324008E0,-4.721292973E0,7.033299472E0
3.589853102E0,4.336180210E0,-2.418256998E0,-4.470102787E0,6.680736834E0
3.594864715E0,3.805123091E0,-3.148056984E0,-3.889951944E0,6.286569067E0
3.599876102E0,3.276149988E0,-3.841706038E0,-2.922720909E0,5.833880487E0
3.604887481E0,2.794418097E0,-4.484937191E0,-1.939721942E0,5.629027919E0
3.609898866E0,2.335969925E0,-5.006028175E0,-9.610589743E-1,5.607201435E0
3.614910251E0,1.905604005E0,-5.364339828E0,-3.137499839E-2,5.692842244E0
3.619921635E0,1.470046997E0,-5.614930153E0,7.518270016E-1,5.852667993E0
3.624933040E0,1.067641973E0,-5.803300858E0,1.219270945E0,6.025344958E0
3.629944499E0,6.766949892E-1,-5.998858929E0,1.337602973E0,6.183316769E0
3.634955886E0,4.046849906E-1,-6.110675812E0,1.159165025E0,6.232799722E0
3.639967290E0,2.560220063E-1,-6.189001083E0,8.007739782E-1,6.245840267E0
3.644978903E0,2.067400068E-1,-6.243374825E0,3.454990089E-1,6.256343996E0
3.649990295E0,1.635189950E-1,-6.252236843E0,-6.582500041E-2,6.254721172E0
3.655001679E0,1.551930010E-1,-6.258627892E0,-4.503160119E-1,6.276726254E0
3.660013139E0,4.443000071E-3,-6.300833225E0,-9.063820243E-1,6.365693006E0
3.665024530E0,-9.061200172E-2,-6.271170139E0,-1.233471990E0,6.391966724E0
3.670035914E0,-2.043689936E-1,-6.193573952E0,-1.434260964E0,6.360756991E0
3.675047299E0,-3.513880074E-1,-6.096749783E0,-1.485098958E0,6.284850862E0
3.680058683E0,-4.793829918E-1,-5.952012062E0,-1.412371993E0,6.136045167E0
3.685070297E0,-5.671100020E-1,-5.745015144E0,-1.330999017E0,5.924387829E0
3.690081683E0,-6.290940046E-1,-5.444667816E0,-1.219377041E0,5.614895125E0
3.695093143E0,-6.870909929E-1,-5.072517872E0,-1.142274022E0,5.244742275E0
3.700104530E0,-7.581499815E-1,-4.662093163E0,-1.094964981E0,4.848592823E0
3.705115914E0,-7.708280087E-1,-4.194261074E0,-1.008293033E0,4.382083593E0
3.710127309E0,-7.657819986E-1,-3.719266891E0,-8.465170264E-1,3.890496029E0
3.715138694E0,-7.932999730E-1,-3.275403023E0,-6.334859729E-1,3.429124420E0
3.720150078E0,-8.006910086E-1,-2.850709915E0,-3.954609931E-1,2.987313594E0
3.725161692E0,-7.280730009E-1,-2.435630083E0,-2.253019959E-1,2.552086438E0
3.730173068E0,-6.206830144E-1,-2.073229074E0,-9.168700129E-2,2.166086957E0
3.735184528E0,-6.792709827E-1,-1.770681977E0,7.261300087E-2,1.897892616E0
3.740195909E0,-9.372479916E-1,-1.542350054E0,3.085359931E-1,1.830975681E0
3.745207294E0,-1.165405989E0,-1.347615957E0,6.283540130E-1,1.889197886E0
3.750218684E0,-1.151980042E0,-1.128036022E0,9.732540250E-1,1.883280829E0
3.755230297E0,-1.197186947E0,-9.240859747E-1,1.393064976E0,2.056166701E0
3.760241684E0,-1.085070014E0,-7.743999958E-1,1.781800032E0,2.225282823E0
3.765253068E0,-8.568519950E-1,-8.164650202E-1,1.662515044E0,2.040776015E0
3.770264528E0,-1.964130044E0,-1.092980981E0,1.919175982E0,2.955613423E0
3.775275919E0,-1.912359953E0,-7.268400192E-1,1.631322980E0,2.616606900E0
3.780287304E0,-1.450566053E0,-2.606100142E-1,1.313694000E0,1.974297693E0
3.785298689E0,-9.609400034E-1,1.663479954E-1,8.894349933E-1,1.319913616E0
3.790310297E0,-4.307630062E-1,4.442799985E-1,5.764999986E-1,8.457503964E-1
3.795321761E0,-1.510809958E-1,7.157220244E-1,4.134069979E-1,8.402314142E-1
3.800333145E0,6.011899933E-2,9.930559993E-1,4.734089971E-1,1.101767031E0
3.805344516E0,1.207130030E-1,1.289504051E0,6.032260060E-1,1.428731585E0
3.810355901E0,2.089099959E-2,1.526121020E0,1.039348006E0,1.846544362E0
3.815367280E0,-7.046200335E-2,1.927677989E0,1.150426984E0,2.245971854E0
3.820378665E0,-1.948570013E-1,2.417682886E0,8.798249960E-1,2.580165075E0
3.825390278E0,-3.841260076E-1,2.953145981E0,7.909229994E-1,3.081263242E0
3.830401665E0,-5.861679912E-1,3.476685047E0,8.277750015E-1,3.621621637E0
3.835413124E0,-7.607679963E-1,3.969225883E0,6.138330102E-1,4.087824975E0
3.840424506E0,-8.555219769E-1,4.426121235E0,3.729420006E-1,4.523444791E0
3.845436119E0,-8.609820008E-1,4.825943947E0,1.930699944E-1,4.905945475E0
3.850447516E0,-8.034110069E-1,5.190333843E0,7.405199856E-2,5.252667736E0
3.855458901E0,-5.678399801E-1,5.409241199E0,1.265940070E-1,5.440437357E0
3.860470285E0,-2.473960072E-1,5.456342220E0,3.133209944E-1,5.470927276E0
3.865481754E0,2.155809999E-1,5.389008999E0,5.351070166E-1,5.419800059E0
3.870493140E0,6.804170012E-1,5.214313984E0,5.207909942E-1,5.284246482E0
3.875504540E0,1.049494028E0,4.999200821E0,9.923999757E-2,5.109138395E0
3.880516153E0,1.110270023E0,4.848827839E0,-8.813189864E-1,5.051787218E0
3.885527555E0,7.695119977E-1,4.906589031E0,-2.374138117E0,5.504842998E0
3.890538940E0,5.868700147E-2,5.205649853E0,-3.745177031E0,6.413157221E0
3.895550399E0,-8.558120131E-1,5.510859966E0,-3.439485073E0,6.552255286E0
3.900561776E0,-3.059549093E0,4.691993237E0,-2.238912106E0,6.032277232E0
3.905573161E0,-5.415802002E0,4.928640842E0,-2.159944057E0,7.634642769E0
3.910584536E0,-5.181015968E0,5.532096863E0,-1.682451010E0,7.763869110E0
3.915596150E0,-5.244441032E0,6.323573112E0,-2.220765114E0,8.510201898E0
3.920607536E0,-5.325739861E0,6.789238930E0,-3.314197063E0,9.243439429E0
3.925618925E0,-5.368162155E0,6.757335186E0,-4.877996922E0,9.913304076E0
3.930630384E0,-4.886384964E0,6.441429138E0,-6.900218010E0,1.062928859E1
3.935642000E0,-4.138946056E0,5.667541981E0,-8.458123207E0,1.099053023E1
3.940653386E0,-3.674801111E0,4.591742039E0,-9.860594749E0,1.148127114E1
3.945664771E0,-3.194643974E0,3.156847954E0,-1.096046638E1,1.184496781E1
3.950676231E0,-2.707564116E0,1.501688957E0,-1.163019753E1,1.203525935E1
3.955687627E0,-1.860550046E0,-6.270600110E-2,-1.125017548E1,1.140315863E1
3.960699012E0,-6.930919886E-1,-1.385766029E0,-9.614959717E0,9.739002739E0
3.965710625E0,7.189649940E-1,-2.212500095E0,-6.835297108E0,7.220343059E0
3.970721998E0,2.389719963E0,-2.387911081E0,-3.765095949E0,5.058540139E0
3.975733382E0,4.048899174E0,-2.091464996E0,-6.473630071E-1,4.602921813E0
3.980744767E0,4.787985802E0,-1.648759007E0,2.029078007E0,5.455306761E0
3.985756227E0,4.706067085E0,-1.163601995E0,3.490595102E0,5.973716697E0
3.990767622E0,4.275733948E0,-4.574089944E-1,4.099123955E0,5.940870389E0
3.995779236E0,1.403923988E0,-1.095033050E0,2.396339893E0,2.985388556E0
4.000790622E0,-8.548030257E-1,1.086419970E-1,-4.378600121E-1,9.665467844E-1
4.005802031E0,-7.994200289E-2,1.378273964E0,-2.077776909E0,2.494631581E0
4.010813416E0,3.095340133E-1,2.771822929E0,-3.354891062E0,4.362809610E0
4.015824875E0,-3.200240135E-1,3.495007992E0,-3.810993910E0,5.180846534E0
4.020836262E0,-1.579421043E0,3.621999979E0,-3.616372108E0,5.356454229E0
4.025847875E0,-2.452126026E0,3.408818007E0,-2.819109917E0,5.057701353E0
4.030859257E0,-2.660685062E0,2.987055063E0,-1.838147998E0,4.402332452E0
4.035870641E0,-2.353218079E0,2.449959040E0,-1.082540989E0,3.565365285E0
4.040882017E0,-1.885903955E0,1.857265949E0,-7.051600218E-1,2.739219084E0
4.045893477E0,-1.701902032E0,1.122776031E0,-7.632279992E-1,2.177065346E0
4.050904863E0,-1.806061029E0,3.289540112E-1,-1.271173000E0,2.232923640E0
4.055916462E0,-1.784803987E0,-4.473299980E-1,-2.033313990E0,2.742260961E0
4.060927848E0,-1.557857037E0,-1.168005943E0,-2.794718027E0,3.406112928E0
4.065939233E0,-1.405611038E0,-1.691967964E0,-3.927181959E0,4.501250507E0
4.070950682E0,-1.384224057E0,-2.160027027E0,-4.623833179E0,5.287875402E0
4.075962069E0,-1.262357950E0,-2.368591070E0,-4.959794044E0,5.639443963E0
4.080973668E0,-1.109724998E0,-2.296061039E0,-5.198556900E0,5.790369566E0
4.085985055E0,-1.060263991E0,-2.188906908E0,-5.213101864E0,5.752556321E0
4.090996440E0,-1.018455029E0,-2.358376026E0,-4.538170815E0,5.214804164E0
4.096007894E0,-1.051741004E0,-2.634860039E0,-3.665030003E0,4.634769841E0
4.101019281E0,-1.213065028E0,-2.994668961E0,-2.546880960E0,4.114142872E0
4.106030894E0,-1.289598942E0,-3.421422958E0,-1.098049998E0,3.817710608E0
4.111042271E0,-8.477050066E-1,-3.839006901E0,-1.753759980E-1,3.935395089E0
4.116053656E0,-6.339759827E-1,-4.400868893E0,1.157976031E0,4.594614352E0
4.121065115E0,-9.906259775E-1,-5.004259109E0,1.541018963E0,5.329041988E0
4.126076512E0,-1.122578979E0,-5.471739769E0,1.373950958E0,5.752204873E0
4.131087896E0,-1.086990952E0,-5.762448788E0,1.115303040E0,5.969193097E0
4.136099271E0,-9.629259706E-1,-5.991278172E0,8.202279806E-1,6.123349940E0
4.141110884E0,-8.386939764E-1,-6.115200996E0,3.883459866E-1,6.184650630E0
4.146122271E0,-6.231889725E-1,-6.093492031E0,-3.508999944E-3,6.125277295E0
4.151133736E0,-3.183949888E-1,-6.000306129E0,-2.287019938E-1,6.013098504E0
4.156145122E0,-1.175440028E-1,-5.921831131E0,-3.900870085E-1,5.935829210E0
4.161156498E0,-1.115240008E-1,-5.874873161E0,-4.802699983E-1,5.895526400E0
4.166168111E0,-6.845200062E-2,-5.715891838E0,-5.278469920E-1,5.740620840E0
4.171179498E0,1.491700020E-2,-5.406420231E0,-5.241979957E-1,5.431793973E0
4.176190966E0,-3.085399978E-2,-5.054014206E0,-6.997269988E-1,5.102316085E0
4.181202353E0,-1.489479989E-1,-4.670491219E0,-9.975799918E-1,4.778162782E0
4.186213724E0,-3.187629879E-1,-4.272419930E0,-1.310742021E0,4.480315451E0
4.191225337E0,-6.132169962E-1,-3.864438057E0,-1.558325052E0,4.211685357E0
4.196236801E0,-1.026334047E0,-3.400985003E0,-1.678287983E0,3.928958019E0
4.201248165E0,-1.236014962E0,-2.850918055E0,-1.653815031E0,3.520024275E0
4.206259550E0,-1.201565981E0,-2.345948935E0,-1.606456995E0,3.086736349E0
4.211270920E0,-1.305165052E0,-1.984238982E0,-1.705950975E0,2.924197135E0
4.216282534E0,-1.697293997E0,-1.825570941E0,-1.808913946E0,3.079884062E0
4.221293905E0,-2.138928890E0,-1.759847045E0,-1.647322059E0,3.222692723E0
4.226305365E0,-2.309346914E0,-1.586186051E0,-1.337859988E0,3.104664025E0
4.231316980E0,-2.207717896E0,-1.326259971E0,-1.222288966E0,2.850784828E0
4.236328136E0,-2.024200916E0,-1.157156944E0,-1.267307997E0,2.653765457E0
4.241339750E0,-2.076364994E0,-1.287062049E0,-1.358296990E0,2.795137031E0
4.246351146E0,-1.902485013E0,-1.486230969E0,-1.330194950E0,2.756401699E0
4.251362531E0,-1.236529946E0,-1.410202980E0,-1.357349992E0,2.315184173E0
4.256374004E0,-6.135299802E-1,-1.214612961E0,-1.544934034E0,2.058767799E0
4.261385391E0,-4.974600077E-1,-1.112460971E0,-1.782907009E0,2.159581736E0
4.266397004E0,-6.712309718E-1,-1.082157969E0,-1.966004968E0,2.342390322E0
4.271408377E0,-8.127200007E-1,-8.819620013E-1,-2.082298040E0,2.402984790E0
4.276419837E0,-8.434939981E-1,-5.798860192E-1,-1.906430006E0,2.163845024E0
4.281431223E0,-9.553890228E-1,-4.326750040E-1,-1.497444987E0,1.828200573E0
4.286442618E0,-1.037546992E0,-1.950500011E-1,-1.221150041E0,1.614235325E0
4.291454231E0,-1.010120034E0,1.703889966E-1,-1.082470059E0,1.490341009E0
4.296465608E0,-1.011397004E0,6.273040175E-1,-1.017500997E0,1.565804109E0
4.301477067E0,-9.593889713E-1,1.068523049E0,-9.251850247E-1,1.708255261E0
4.306488463E0,-8.354690075E-1,1.447378993E0,-7.540010214E-1,1.833420833E0
4.311500077E0,-5.305799842E-1,1.728803992E0,-3.746519983E-1,1.846792485E0
4.316511449E0,-3.154389858E-1,1.824012041E0,8.724900335E-2,1.853141675E0
4.321522909E0,-2.798820138E-1,1.972056031E0,2.597860098E-1,2.008688055E0
4.326534295E0,8.673200011E-2,1.950206041E0,4.025020003E-1,1.993196905E0
4.331545666E0,3.895719945E-1,1.753572941E0,2.861520052E-1,1.818974263E0
4.336557051E0,3.203899860E-1,1.298331976E0,5.594149828E-1,1.449572622E0
4.341568659E0,2.311020046E-1,9.264150262E-1,4.456090033E-1,1.053669930E0
4.346580046E0,-1.696369946E-1,6.638029814E-1,-1.583849937E-1,7.032047456E-1
4.351591505E0,-7.043300271E-1,5.331360102E-1,-8.484849930E-1,1.224843490E0
4.356602892E0,-1.385190010E0,5.598170161E-1,-1.923133969E0,2.435280419E0
4.361614505E0,-2.327186108E0,5.744820237E-1,-3.043812990E0,3.874354436E0
4.366625892E0,-2.639494896E0,1.411383033E0,-3.819941998E0,4.852926152E0
4.371637351E0,-3.339449883E0,2.047000885E0,-3.829190016E0,5.477666868E0
4.376648752E0,-4.284616947E0,2.495770931E0,-3.873272896E0,6.291983618E0
4.381660365E0,-4.867658138E0,2.894139051E0,-3.504329920E0,6.659614462E0
4.386671738E0,-5.433546066E0,1.818166018E0,-2.564701080E0,6.277486930E0
4.391683198E0,-5.898471832E0,1.892722964E0,-1.763690948E0,6.440883164E0
4.396694584E0,-5.652613163E0,2.356925964E0,-1.117192984E0,6.225371935E0
4.401706217E0,-3.981112003E0,2.787633896E0,-9.614809752E-1,4.954250820E0
4.406717603E0,-5.049683094E0,3.211786985E0,-8.202469945E-1,6.040503300E0
4.411729063E0,-3.166646957E0,3.115495920E0,-1.091048002E0,4.574314542E0
4.416740458E0,5.446842194E0,3.015156031E0,-7.033745766E0,9.393233483E0
4.421751843E0,-2.112709045E0,5.669055939E0,-3.152529955E0,6.822036343E0
4.426763452E0,-7.516783237E0,7.635260105E0,2.294814110E0,1.095743578E1
4.431774839E0,-7.872790813E0,8.099395752E0,2.703950882E0,1.161431862E1
4.436786299E0,-7.445609093E0,7.566450119E0,1.685480952E0,1.074844678E1
4.441797684E0,-6.632586956E0,6.644782066E0,9.337069988E-1,9.434836893E0
4.446809069E0,-5.345076084E0,5.576711178E0,4.335710108E-1,7.736764810E0
4.451820682E0,-3.967627048E0,4.692821980E0,3.767600060E-1,6.156832841E0
4.456832069E0,-3.012136936E0,4.055352211E0,5.879150033E-1,5.085714751E0
4.461843453E0,-2.640304089E0,3.393883944E0,7.007550001E-1,4.356685836E0
4.466854937E0,-2.367019892E0,2.921318054E0,8.018590212E-1,3.844458379E0
4.471866552E0,-2.219989061E0,2.520250082E0,7.653800249E-1,3.444679737E0
4.476877925E0,-2.145955086E0,2.178561926E0,1.425759941E-1,3.061304168E0
4.481889310E0,-1.976763010E0,1.987220049E0,-1.202630997E0,3.050074890E0
4.486900763E0,-1.624758005E0,1.620869040E0,-1.449275017E0,2.714305269E0
4.491912150E0,-7.670329809E-1,1.285361052E0,-1.480442047E0,2.105279383E0
4.496923763E0,-5.159209967E-1,1.072353959E0,-1.114058018E0,1.630105136E0
4.501935227E0,-9.521120191E-1,8.981239796E-1,-5.803909898E-1,1.431781296E0
4.506946535E0,-1.313953996E0,9.239169955E-1,-2.748050094E-1,1.629605937E0
4.511958009E0,-1.467064977E0,8.009949923E-1,7.566399872E-2,1.673199828E0
4.516969396E0,-1.114640951E0,1.101868033E0,-1.505870074E-1,1.574552019E0
4.521981037E0,-1.057428002E0,1.249402046E0,-1.992540061E-1,1.648897090E0
4.526992424E0,-1.114370942E0,9.865000248E-1,-1.351960003E-1,1.494417229E0
4.532003883E0,-1.072756052E0,6.011239886E-1,-2.714610100E-1,1.259304045E0
4.537015514E0,-9.944199920E-1,-5.132099986E-2,2.432319969E-1,1.025020375E0
4.542026900E0,-5.939040184E-1,-3.739739954E-1,4.991439879E-1,8.612335647E-1
4.547038369E0,-3.057070076E-1,-6.085889935E-1,3.817340136E-1,7.807420795E-1
4.552049755E0,-1.108430028E-1,-8.994719982E-1,1.291850060E-1,9.154369517E-1
4.557061140E0,-3.941199929E-2,-1.160716057E0,-1.808329970E-1,1.175378936E0
4.562072753E0,-5.091699958E-2,-1.716195941E0,-6.794409752E-1,1.846499685E0
4.567084140E0,-7.465499640E-2,-2.194849968E0,-9.366300106E-1,2.387512414E0
4.572095525E0,-2.882489860E-1,-2.653990030E0,-9.937530160E-1,2.848560271E0
4.577106984E0,-5.893129706E-1,-3.222708941E0,-9.473040104E-1,3.410355932E0
4.582118605E0,-7.818740010E-1,-3.793293953E0,-8.813809752E-1,3.972057199E0
4.587129991E0,-8.876469731E-1,-4.349027157E0,-7.982980013E-1,4.509903997E0
4.592141371E0,-8.730030060E-1,-4.911472797E0,-7.602729797E-1,5.046059283E0
4.597152830E0,-8.144419789E-1,-5.224616051E0,-5.351830125E-1,5.314729482E0
4.602164217E0,-1.046682000E0,-5.429645061E0,-4.079470038E-1,5.544637902E0
4.607175836E0,-1.181926966E0,-5.466772079E0,-6.023599952E-2,5.593404750E0
4.612187222E0,-1.284360051E0,-5.515546799E0,4.269999862E-1,5.679187109E0
4.617198612E0,-1.372732043E0,-5.609566212E0,5.494009852E-1,5.801160900E0
4.622210071E0,-1.513880014E0,-5.507225037E0,6.448609829E-1,5.747800100E0
4.627221687E0,-1.772129059E0,-5.311429024E0,7.612519860E-1,5.650772006E0
4.632233073E0,-1.931470990E0,-4.861814976E0,7.664189935E-1,5.287269912E0
4.637244458E0,-2.072693110E0,-4.467026234E0,6.382550001E-1,4.965657010E0
4.642255908E0,-2.059051991E0,-4.055214882E0,5.076879859E-1,4.576265937E0
4.647267294E0,-2.062433004E0,-3.695739985E0,4.818840027E-1,4.259616899E0
4.652278884E0,-2.113806009E0,-3.381460905E0,6.543099880E-1,4.041110647E0
4.657290347E0,-2.167763948E0,-3.035836935E0,8.601650000E-1,3.828235920E0
4.662301732E0,-2.305758953E0,-2.725954056E0,1.116935968E0,3.740975250E0
4.667313116E0,-2.523529053E0,-2.459062099E0,1.305721998E0,3.757671516E0
4.672324730E0,-2.613485098E0,-2.192174911E0,1.403588057E0,3.688630455E0
4.677336209E0,-2.528125048E0,-1.927723050E0,1.444494963E0,3.492004884E0
4.682347594E0,-2.279467106E0,-1.648990035E0,1.359346032E0,3.124573580E0
4.687358979E0,-2.097604990E0,-1.371752977E0,1.073022962E0,2.726358597E0
4.692370611E0,-2.002052069E0,-1.051707029E0,8.373590112E-1,2.411528618E0
4.697381998E0,-1.931630969E0,-7.329009771E-1,3.576309979E-1,2.096721721E0
4.702393452E0,-1.794862032E0,-5.522810221E-1,3.537749946E-1,1.910942382E0
4.707404839E0,-1.836501956E0,-5.696330070E-1,3.085800111E-1,1.947419529E0
4.712416452E0,-1.835283995E0,-6.960690022E-1,3.194690049E-1,1.988677913E0
4.717427844E0,-1.839555979E0,-8.280109763E-1,4.812780023E-1,2.073932711E0
4.722439228E0,-1.859030008E0,-9.389929771E-1,6.758639812E-1,2.189632961E0
4.727450688E0,-1.704422951E0,-9.170500040E-1,8.383020163E-1,2.109215156E0
4.732462303E0,-1.476524949E0,-8.341450095E-1,1.042626977E0,1.990727213E0
4.737473685E0,-1.377097011E0,-7.140740156E-1,1.301144958E0,2.024666905E0
4.742485145E0,-1.288380980E0,-5.334799886E-1,1.477180958E0,2.031401002E0
4.747496540E0,-1.209802985E0,-2.929010093E-1,1.586369038E0,2.016427779E0
4.752508154E0,-1.342511058E0,-1.642699987E-1,1.686575055E0,2.161910264E0
4.757519531E0,-1.392143011E0,-9.259399772E-2,1.803416014E0,2.280119543E0
4.762530991E0,-1.300011039E0,-2.109800093E-2,1.824252009E0,2.240171694E0
4.767542377E0,-1.273692966E0,-3.879999858E-4,1.682643056E0,2.110351055E0
4.772553991E0,-1.239024997E0,2.483299933E-2,1.568027020E0,1.998626617E0
4.777565377E0,-1.233593941E0,3.841900080E-2,1.515468001E0,1.954449614E0
4.782576837E0,-1.175732970E0,8.898700029E-2,1.620489955E0,2.004059480E0
4.787588224E0,-9.112539887E-1,2.021880001E-1,1.675848961E0,1.918263162E0
4.792599608E0,-7.737190127E-1,3.206360042E-1,1.654471040E0,1.854379405E0
4.797611222E0,-5.636129975E-1,5.322989821E-1,1.703472018E0,1.871581880E0
4.802622593E0,-3.470430076E-1,7.567819953E-1,1.858392954E0,2.036364950E0
4.807634053E0,-2.243040055E-1,9.556879997E-1,2.127156019E0,2.342742959E0
4.812645435E0,-1.258839965E-1,1.131263971E0,2.395809889E0,2.652453577E0
4.817657049E0,5.871199816E-2,1.335958958E0,2.569796085E0,2.896909622E0
4.822668512E0,2.006520033E-1,1.579239964E0,2.594765902E0,3.044186291E0
4.827680116E0,1.637939960E-1,1.882658958E0,2.231507063E0,2.924184843E0
4.832691502E0,1.250450015E-1,2.162532091E0,1.852934003E0,2.850534286E0
4.837702887E0,2.495270073E-1,2.426038980E0,1.286829948E0,2.757509778E0
4.842714356E0,1.782449931E-1,2.500866890E0,1.647949964E-1,2.512620916E0
4.847725742E0,-2.304939926E-1,2.465877056E0,-1.292721987E0,2.793708516E0
4.852737132E0,-7.977939844E-1,2.445255995E0,-2.627846956E0,3.677136351E0
4.857748745E0,-1.425495028E0,2.350049973E0,-3.472796917E0,4.428892568E0
4.862760132E0,-1.913864017E0,2.026942968E0,-3.833800077E0,4.740189480E0
4.867771572E0,-1.942708969E0,1.567070007E0,-3.617835999E0,4.395288825E0
4.872782959E0,-1.640992999E0,1.463762045E0,-3.065006018E0,3.772230008E0
4.877794577E0,-1.738945007E0,1.501770973E0,-2.531735897E0,3.418908078E0
4.882805964E0,-2.064277887E0,1.657125950E0,-2.331315041E0,3.527370044E0
4.887817419E0,-1.848031998E0,2.037302971E0,-1.704861045E0,3.236105196E0
4.892828805E0,-1.706303954E0,2.836170912E0,-2.985919952E0,4.457696332E0
4.897840409E0,-1.491168022E0,3.266638041E0,-2.337765932E0,4.284816882E0
4.902851872E0,-7.662379742E-1,3.589031935E0,-8.167200089E-1,3.759694460E0
4.907863257E0,-1.604769975E-1,4.310018063E0,-8.587430120E-1,4.397663940E0
4.912874870E0,-6.253769994E-1,4.467524052E0,-1.813115954E0,4.861816225E0
4.917886257E0,-2.926990092E-1,4.388967991E0,-9.324529767E-1,4.496463198E0
4.922897716E0,2.207999974E-1,4.284549236E0,-6.081920266E-1,4.333129624E0
4.927909103E0,5.998910069E-1,4.058425903E0,-7.870240211E-1,4.177331306E0
4.932920707E0,8.515620232E-1,3.667526007E0,-1.533615947E0,4.065449884E0
4.937932094E0,1.419659019E0,3.442339897E0,-2.392313004E0,4.425866831E0
4.942943479E0,1.614771962E0,3.273322105E0,-3.037266016E0,4.748379823E0
4.947954938E0,1.489223957E0,2.986356974E0,-3.757838964E0,5.025681014E0
4.952966325E0,1.409085035E0,2.500571966E0,-3.656137943E0,4.648195936E0
4.957978015E0,1.228909016E0,2.074738026E0,-3.869885921E0,4.559689933E0
4.962989416E0,9.758970141E-1,1.589544058E0,-3.663032055E0,4.110575280E0
4.968000800E0,6.342840195E-1,1.001764059E0,-3.055890083E0,3.277851682E0
4.973012414E0,2.528490126E-1,4.417209923E-1,-2.520032883E0,2.570917305E0
4.978023810E0,8.325800300E-2,-5.431300029E-2,-1.812765002E0,1.815488571E0
4.983035270E0,1.526080072E-1,-4.572399855E-1,-1.265182972E0,1.353900130E0
4.988046642E0,2.078070045E-1,-5.576630235E-1,-8.347089887E-1,1.025139451E0
4.993058255E0,6.905800104E-2,-4.611069858E-1,-4.631510079E-1,6.571891021E-1
4.998069642E0,-9.071099758E-2,-2.448479980E-1,-1.474789977E-1,2.998817800E-1
5.003081101E0,-2.704080045E-1,-6.713200361E-2,1.140230000E-1,3.010455769E-1
5.008092488E0,-3.858839869E-1,1.813450009E-1,3.049699962E-1,5.242128950E-1
5.013104101E0,-6.825479865E-1,3.887589872E-1,5.111079812E-1,9.371428239E-1
5.018115478E0,-8.147079945E-1,2.621850073E-1,5.085909963E-1,9.955676249E-1
5.023126937E0,-6.696370244E-1,4.509800076E-1,4.561769962E-1,9.273047847E-1
5.028138553E0,-7.782400250E-1,6.042529941E-1,4.132840037E-1,1.068448822E0
5.033149949E0,-9.358980060E-1,6.526799798E-1,3.208299875E-1,1.185254451E0
5.038161409E0,-8.673229814E-1,6.913419962E-1,2.312840074E-1,1.133002737E0
5.043172796E0,6.446220279E-1,1.663203001E0,4.073610008E-1,1.829678870E0
5.048184180E0,-7.637240291E-1,4.226599932E-1,1.794539988E-1,8.911338845E-1
5.053195799E0,-1.823479056E0,-5.723209977E-1,-2.309760004E-1,1.925091454E0
5.058207185E0,-9.888650179E-1,-1.389631987E0,-2.726730108E-1,1.727217894E0
5.063218645E0,-1.654721975E0,-1.883702993E0,-1.144804955E0,2.756269248E0
5.068230064E0,-1.739444017E0,-2.260584116E0,-1.340481997E0,3.151634182E0
5.073241678E0,-1.700755000E0,-2.474905968E0,-1.568207026E0,3.387772187E0
5.078253141E0,-1.586899996E0,-2.667928934E0,-1.703665972E0,3.540984911E0
5.083264492E0,-1.392986059E0,-3.014370918E0,-1.684589028E0,3.723530903E0
5.088276105E0,-1.281196952E0,-3.329951048E0,-1.644822955E0,3.928801619E0
5.093287468E0,-1.261410952E0,-3.669806004E0,-1.541157961E0,4.175380408E0
5.098298853E0,-1.044360042E0,-3.888165951E0,-1.470998049E0,4.286298825E0
5.103310312E0,-6.993529797E-1,-4.083195210E0,-1.400537014E0,4.372994585E0
5.108321942E0,-3.382909894E-1,-4.144802094E0,-1.257653952E0,4.344596489E0
5.113333328E0,-1.424520016E-1,-4.254827976E0,-1.235741019E0,4.432934643E0
5.118344759E0,7.294499874E-2,-4.348619938E0,-1.188609004E0,4.508725729E0
5.123356374E0,2.916319966E-1,-4.447675228E0,-1.039409041E0,4.576814975E0
5.128367761E0,4.829120040E-1,-4.484963894E0,-9.075059891E-1,4.601268548E0
5.133379211E0,7.501299977E-1,-4.525034904E0,-6.754990220E-1,4.636263024E0
5.138390598E0,4.593330026E-1,-4.737784863E0,-3.694370091E-1,4.774314183E0
5.143402211E0,2.441100031E-1,-4.864854813E0,-2.094160020E-1,4.875475064E0
5.148413602E0,5.207200050E-1,-4.712350845E0,-3.311600164E-2,4.741149279E0
5.153424987E0,7.058269978E-1,-4.438022137E0,5.807000212E-3,4.493803062E0
5.158436446E0,7.300159931E-1,-4.237992764E0,9.707000107E-3,4.300418612E0
5.163447828E0,6.887549758E-1,-3.954269886E0,-2.200699970E-2,4.013865725E0
5.168459441E0,6.872220039E-1,-3.598762989E0,6.095699966E-2,3.664298690E0
5.173470891E0,6.825109720E-1,-3.245579958E0,1.385969967E-1,3.319460742E0
5.178482275E0,6.580029726E-1,-2.877881050E0,1.266590059E-1,2.954862053E0
5.183493903E0,6.665120125E-1,-2.538652897E0,4.142199829E-2,2.625016681E0
5.188505289E0,6.602669954E-1,-2.325938940E0,-1.200650036E-1,2.420818057E0
5.193516749E0,6.535429955E-1,-2.153561115E0,-2.505609989E-1,2.264447999E0
5.198528141E0,5.649549961E-1,-1.978453040E0,-8.938500285E-2,2.059475724E0
5.203539754E0,4.543190002E-1,-1.826989055E0,1.913399994E-2,1.882726977E0
5.208551155E0,3.910509944E-1,-1.639358044E0,2.960499935E-2,1.685613281E0
5.213562614E0,3.345189989E-1,-1.422763944E0,-5.307099968E-2,1.462524096E0
5.218574016E0,3.231280148E-1,-1.141289949E0,-1.907339990E-1,1.201388331E0
5.223585629E0,3.124150038E-1,-8.277490139E-1,-2.953790128E-1,9.327488010E-1
5.228597093E0,2.362550050E-1,-4.397549927E-1,-3.447999954E-1,6.067024953E-1
5.233608467E0,1.269520074E-1,-3.675299883E-2,-3.241640031E-1,3.500712728E-1
5.238620081E0,3.443700075E-2,3.456250131E-1,-2.099920064E-1,4.058807700E-1
5.243631544E0,5.251000170E-3,6.543130279E-1,-1.391939968E-1,6.689753958E-1
5.248642919E0,-1.728899963E-2,7.745299935E-1,-7.099699974E-2,7.779692760E-1
5.253654304E0,-8.149299771E-2,7.466750145E-1,-1.704600006E-1,7.702086067E-1
5.258665688E0,-1.323000044E-1,6.418830156E-1,-5.009909868E-1,8.249297339E-1
5.263677322E0,-2.165620029E-1,5.770930052E-1,-1.022068977E0,1.193549510E0
5.268688785E0,-3.731020093E-1,5.861679912E-1,-1.623414993E0,1.765863603E0
5.273700397E0,-6.585329771E-1,6.513010263E-1,-2.082353115E0,2.279046556E0
5.278711784E0,-1.081580997E0,6.692799926E-1,-2.048434973E0,2.411190370E0
5.283723169E0,-1.394759059E0,6.912260056E-1,-1.460610032E0,2.134602513E0
5.288734658E0,-1.666810036E0,8.130400181E-1,-7.762039900E-1,2.010418464E0
5.293746274E0,-1.753695965E0,9.021890163E-1,5.894610286E-1,2.058363151E0
5.298757655E0,-1.718994021E0,1.183609009E0,1.245828986E0,2.430629670E0
5.303769115E0,-1.768437028E0,1.319772959E0,1.941275001E0,2.938999628E0
5.308780497E0,-1.667706966E0,1.480443954E0,2.401793957E0,3.277434216E0
5.313792111E0,-1.409728050E0,1.675066948E0,2.760042906E0,3.522927660E0
5.318803498E0,-1.190933943E0,1.853253007E0,2.909202099E0,3.649154315E0
5.323814981E0,-9.232259989E-1,2.036386013E0,2.938340902E0,3.692297591E0
5.328826368E0,-6.357949972E-1,2.358355045E0,2.675242901E0,3.622567926E0
5.333837981E0,4.942969978E-1,2.644476891E0,2.181750059E0,3.463758200E0
5.338849382E0,3.953059912E-1,2.746910095E0,1.455119967E0,3.133553257E0
5.343860841E0,-9.080449939E-1,2.890019894E0,7.147319913E-1,3.112491368E0
5.348872228E0,-1.243026972E0,3.607152939E0,-3.180800080E-1,3.828556290E0
5.353883827E0,-1.751881957E0,4.216240883E0,-1.390105009E0,4.772648061E0
5.358895291E0,-2.646171093E0,4.563921928E0,-2.142257929E0,5.693933074E0
5.363906684E0,-3.476667881E0,4.858107090E0,-2.563977957E0,6.500954316E0
5.368918298E0,-4.075090885E0,4.998101234E0,-2.390172958E0,6.877521970E0
5.373929684E0,-4.442233086E0,4.866457939E0,-2.044083118E0,6.898849430E0
5.378941140E0,-4.505144119E0,4.546619892E0,-2.398785114E0,6.835367291E0
5.383952755E0,-4.191660881E0,4.287210941E0,-3.641917944E0,7.015252305E0
5.388964146E0,-3.855900049E0,4.105288982E0,-5.402115822E0,7.804115464E0
5.393975606E0,-3.587095976E0,4.121076107E0,-6.956009865E0,8.845145508E0
5.398987221E0,-3.290561914E0,3.866169930E0,-7.956308842E0,9.438109875E0
5.403998608E0,-2.650684118E0,3.994472027E0,-8.040650368E0,9.361302869E0
5.409009992E0,-2.281719923E0,3.958467960E0,-7.146069050E0,8.481864021E0
5.414021452E0,-1.895735025E0,3.806112051E0,-5.652507782E0,7.073269715E0
5.419032829E0,-1.477054954E0,3.582817078E0,-4.137250900E0,5.668784222E0
5.424044443E0,-1.184510946E0,2.939161062E0,-2.586452961E0,4.090412308E0
5.429055906E0,-8.160300255E-1,2.064023018E0,-1.266299963E0,2.555310474E0
5.434067276E0,-2.104550004E-1,1.086465001E0,-4.098420143E-1,1.180113546E0
5.439078661E0,2.692979872E-1,1.284630001E-1,-1.743869931E-1,3.455936511E-1
5.444090269E0,-2.583619952E-1,-4.857949913E-1,2.262749970E-1,5.949353481E-1
5.449101656E0,-6.747930050E-1,-9.576269984E-1,6.338660121E-1,1.331983930E0
5.454113111E0,-6.981539726E-1,-1.340705037E0,5.026860237E-1,1.592985312E0
5.459124727E0,-6.713780165E-1,-1.668632984E0,3.491179943E-1,1.832203005E0
5.464136190E0,-8.099910021E-1,-1.898432016E0,4.079250097E-1,2.103932593E0
5.469147570E0,-9.417629838E-1,-1.917801023E0,5.816000104E-1,2.214302791E0
5.474159183E0,-9.800969958E-1,-1.662245989E0,6.818529963E-1,2.046600928E0
5.479170555E0,-9.073320031E-1,-1.429021955E0,8.119199872E-1,1.877383599E0
5.484182014E0,-6.529690027E-1,-8.430449963E-1,7.691249847E-1,1.314780068E0
5.489193401E0,-7.396489978E-1,-5.317490101E-1,6.541990042E-1,1.121523066E0
5.494204791E0,-5.155329704E-1,-6.044299901E-2,3.815400004E-1,6.442052248E-1
5.499216404E0,-1.915429980E-1,3.718219995E-1,8.923400193E-2,4.276716340E-1
5.504227810E0,1.246093988E0,8.024520278E-1,-3.827109933E-1,1.530734199E0
5.509239269E0,-4.621770084E-1,9.204429984E-1,-1.029693961E0,1.456397114E0
5.514250885E0,-6.805379987E-1,1.333451986E0,-1.697213054E0,2.263130203E0
5.519262276E0,-1.389369965E-1,1.820049047E0,-2.220947027E0,2.874802206E0
5.524273736E0,1.534020007E-1,1.854123950E0,-2.611502886E0,3.206439633E0
5.529285341E0,1.558620036E-1,1.572239041E0,-2.843324900E0,3.252802646E0
5.534296728E0,1.284199953E-1,1.110936999E0,-2.821969986E0,3.035487986E0
5.539308187E0,3.502289951E-1,5.795050263E-1,-2.527406931E0,2.616538213E0
5.544319574E0,3.917950094E-1,-2.719699964E-2,-2.025763988E0,2.063483158E0
5.549331187E0,3.009789884E-1,-6.654049754E-1,-1.528833985E0,1.694309738E0
5.554342651E0,1.942880005E-1,-1.231835961E0,-1.114091039E0,1.672233986E0
5.559354060E0,1.071859971E-1,-1.731562972E0,-7.569090128E-1,1.892804908E0
5.564365673E0,7.767999917E-2,-2.205364943E0,-4.761230052E-1,2.257512310E0
5.569377137E0,1.200219989E-1,-2.617368937E0,-1.927510053E-1,2.627199722E0
5.574388497E0,2.366539985E-1,-2.924489975E0,1.667699963E-2,2.934096940E0
5.579400111E0,3.969520032E-1,-3.136217117E0,1.330450028E-1,3.164036927E0
5.584411497E0,4.627110064E-1,-3.305067062E0,1.992930025E-1,3.343245050E0
5.589422901E0,5.373020172E-1,-3.395071030E0,2.346149981E-1,3.445322184E0
5.594434360E0,4.944840074E-1,-3.554466963E0,7.137200236E-2,3.589407164E0
5.599445976E0,3.824569881E-1,-3.673063040E0,-2.907960117E-1,3.704352543E0
5.604457348E0,5.485140085E-1,-3.791423082E0,-2.779490054E-1,3.840965016E0
5.609468808E0,3.733989894E-1,-3.907094955E0,-3.973079920E-1,3.944955188E0
5.614480205E0,1.657119989E-1,-3.933969975E0,-5.243579745E-1,3.972219973E0
5.619491895E0,4.304000176E-3,-3.903165102E0,-6.376280189E-1,3.954906551E0
5.624503205E0,-1.014259979E-1,-3.879283905E0,-7.684040070E-1,3.955954444E0
5.629514904E0,-2.832989991E-1,-3.888648987E0,-9.097030163E-1,4.003674418E0
5.634526291E0,-4.771760106E-1,-3.931286097E0,-9.612969756E-1,4.075144070E0
5.639537771E0,-6.188740134E-1,-3.961731911E0,-9.306619763E-1,4.116364475E0
5.644549156E0,-6.533439755E-1,-3.924901009E0,-8.491719961E-1,4.068513163E0
5.649560555E0,-6.715419888E-1,-3.813548088E0,-7.482910156E-1,3.943863221E0
5.654572169E0,-7.908239961E-1,-3.639595032E0,-5.350000262E-1,3.762748944E0
5.659583569E0,-8.749880195E-1,-3.367135048E0,-2.429630011E-1,3.487439388E0
5.664595029E0,-9.527469873E-1,-3.096677065E0,8.244799823E-2,3.240977220E0
5.669606644E0,-9.382669926E-1,-2.919220924E0,1.088389978E-1,3.068231035E0
5.674618022E0,-8.311849833E-1,-2.576333046E0,8.511469960E-1,2.837747637E0
5.679629407E0,-7.168239951E-1,-2.285815001E0,1.075513959E0,2.625931669E0
5.684640880E0,-6.523730159E-1,-1.963938951E0,1.181903005E0,2.383178858E0
5.689652495E0,-1.087409019E0,-2.307024002E0,1.103394032E0,2.778902033E0
5.694663867E0,-2.346642971E0,-1.889207959E0,4.345670044E-1,3.043795070E0
5.699675327E0,6.346219778E-1,-5.837510228E-1,1.771319956E-1,8.802761244E-1
5.704686942E0,9.695000201E-2,-1.043128014E0,3.889200091E-2,1.048345336E0
5.709698329E0,-4.335109890E-1,-1.272197962E0,-3.085309863E-1,1.378989050E0
5.714709773E0,-4.841589928E-1,-1.043792009E0,-2.237939984E-1,1.172175517E0
5.719721160E0,-3.488749862E-1,-8.516070247E-1,-2.017499954E-1,9.421525041E-1
5.724732773E0,-3.627040088E-1,-7.281630039E-1,-1.504220068E-1,8.272861285E-1
5.729744160E0,-4.535709918E-1,-6.420699954E-1,-1.174049973E-1,7.948361196E-1
5.734755619E0,-4.689210057E-1,-5.499830246E-1,9.402000345E-3,7.228116176E-1
5.739767221E0,-5.059390068E-1,-5.475929976E-1,1.181650013E-1,7.548478900E-1
5.744778607E0,-6.766309738E-1,-7.503849864E-1,1.846699975E-2,1.010568223E0
5.749790062E0,-8.664469719E-1,-8.658879995E-1,-2.961100042E-1,1.260227566E0
5.754801449E0,-1.053092957E0,-8.591240048E-1,-6.742900014E-1,1.517157156E0
5.759813062E0,-1.218567014E0,-8.660449982E-1,-9.870049953E-1,1.791401230E0
5.764824555E0,-1.261914968E0,-8.975629807E-1,-1.100005031E0,1.899489342E0
5.769835939E0,-1.101380944E0,-9.118530154E-1,-9.409270287E-1,1.711683259E0
5.774847553E0,-8.794879913E-1,-9.268180132E-1,-5.855069757E-1,1.405456927E0
5.779858919E0,-8.967499733E-1,-9.198619723E-1,-2.341919988E-1,1.305814862E0
5.784870379E0,-8.794630170E-1,-8.391429782E-1,5.601000041E-2,1.216862053E0
5.789881775E0,-7.432199717E-1,-5.243149996E-1,-1.642329991E-1,9.242589589E-1
5.794893389E0,-6.933900118E-1,-1.460160017E-1,-5.676370263E-1,9.079218991E-1
5.799904775E0,-6.179710031E-1,1.862729937E-1,-9.585430026E-1,1.155590964E0
5.804916221E0,-4.854330122E-1,5.315930247E-1,-1.148548007E0,1.355506871E0
5.809927836E0,-2.573679984E-1,8.433989882E-1,-1.139605045E0,1.440923245E0
5.814939198E0,-5.855900049E-2,1.037541032E0,-8.953490257E-1,1.371703476E0
5.819950658E0,6.113000214E-3,1.024520040E0,-5.664389729E-1,1.170697139E0
5.824962044E0,-1.933999918E-2,9.146360159E-1,-2.613919973E-1,9.514509201E-1
5.829973649E0,-1.319050044E-1,7.874969840E-1,-2.320419997E-1,8.315010040E-1
5.834985112E0,-4.012109935E-1,6.088989973E-1,-3.510169983E-1,8.092843649E-1
5.839996487E0,-9.255380034E-1,9.469349980E-1,-5.697929859E-1,1.441516747E0
5.845008100E0,-1.829429030E0,1.097455978E0,-8.384330273E-1,2.292202029E0
5.850019564E0,-2.094800949E0,1.306444049E0,-7.532140017E-1,2.581146722E0
5.855030857E0,-2.191677094E0,1.461035967E0,-5.492299795E-1,2.690674293E0
5.860042317E0,-2.331444979E0,1.587270975E0,-7.226510048E-1,2.911578491E0
5.865053932E0,-2.525563002E0,1.771180987E0,-1.646303058E0,3.496550346E0
5.870065405E0,-2.595769882E0,2.084922075E0,-3.185751915E0,4.608029579E0
5.875076790E0,-2.364830971E0,2.483750105E0,-4.770403862E0,5.875218559E0
5.880088394E0,-1.892907977E0,2.956614017E0,-6.290065765E0,7.203443232E0
5.885099857E0,-1.490816951E0,3.607533932E0,-7.338317871E0,8.311903839E0
5.890111242E0,-1.150560975E0,4.106894970E0,-6.733749866E0,7.970806993E0
5.895122866E0,-7.606649995E-1,4.444923878E0,-5.742104053E0,7.301213494E0
5.900134252E0,-4.414730072E-1,4.544713974E0,-4.563598156E0,6.455675925E0
5.905145712E0,-3.081700020E-2,4.475028992E0,-3.268111944E0,5.541424893E0
5.910157093E0,4.379810095E-1,4.278237820E0,-2.128254890E0,4.798397137E0
5.915168707E0,8.269180059E-1,3.927434921E0,-1.399991035E0,4.250707394E0
5.920180161E0,1.034203053E0,3.302640915E0,-1.500360012E0,3.772014466E0
5.925191546E0,1.720749021E0,3.045201063E0,-1.165760994E0,3.686899158E0
5.930203154E0,1.299741030E0,2.499510050E0,-1.338060021E0,3.118859063E0
5.935214618E0,1.200664997E0,2.068036079E0,-1.609027982E0,2.882245775E0
5.940226002E0,1.152299047E0,1.669749022E0,-1.452491045E0,2.495112247E0
5.945237401E0,8.063129783E-1,1.181460977E0,-1.306746006E0,1.937414716E0
5.950249014E0,5.513290167E-1,8.569089770E-1,-1.060750961E0,1.470866847E0
5.955260406E0,3.803670108E-1,6.895250082E-1,-6.509799957E-1,1.021713636E0
5.960271866E0,2.655999959E-1,7.096229792E-1,-4.991280138E-1,9.073240350E-1
5.965283481E0,1.379719973E-1,9.240610003E-1,-6.157259941E-1,1.118947498E0
5.970294935E0,-8.962599933E-2,1.282680035E0,-1.080039024E0,1.679221601E0
5.975306319E0,-4.054349959E-1,1.614712000E0,-1.635540962E0,2.333809465E0
5.980317933E0,-5.895959735E-1,1.958902955E0,-2.142678976E0,2.962430994E0
5.985329396E0,-7.019799948E-1,2.354000092E0,-2.605323076E0,3.580754205E0
5.990340781E0,-8.884549737E-1,2.640243053E0,-3.075469971E0,4.149548308E0
5.995352394E0,-1.209339976E0,2.872941971E0,-3.111511946E0,4.404293965E0
6.000363858E0,-1.409427047E0,2.786461115E0,-2.969762087E0,4.309331386E0
6.005375233E0,-1.548953056E0,2.512372017E0,-2.872766972E0,4.118744808E0
6.010386618E0,-1.477558017E0,2.275600910E0,-2.691409111E0,3.821677668E0
6.015398255E0,-1.382200003E0,2.047215939E0,-2.472913980E0,3.495264439E0
6.020409719E0,-1.356745958E0,1.743127942E0,-2.242742062E0,3.147879695E0
6.025421104E0,-1.320361018E0,1.410820961E0,-2.124346018E0,2.871692011E0
6.030432712E0,-1.135656953E0,1.070572019E0,-1.977720022E0,2.519368502E0
6.035444099E0,-8.419079781E-1,7.486150265E-1,-1.726665020E0,2.061699685E0
6.040455567E0,-5.306789875E-1,3.756130040E-1,-1.434303045E0,1.574779522E0
6.045466954E0,-2.446749955E-1,1.322299987E-2,-1.197106004E0,1.221926137E0
6.050478558E0,4.644700140E-2,-2.606830001E-1,-1.040904999E0,1.074055942E0
6.055489945E0,2.285580039E-1,-4.777320027E-1,-9.768869877E-1,1.111204218E0
6.060501394E0,3.279919922E-1,-6.278030276E-1,-8.859050274E-1,1.134258836E0
6.065513010E0,4.028080106E-1,-6.942459941E-1,-8.007979989E-1,1.133802994E0
6.070524468E0,4.701130092E-1,-6.799550056E-1,-7.532910109E-1,1.118388304E0
6.075535853E0,5.513240099E-1,-6.548349857E-1,-7.633200288E-1,1.146919565E0
6.080547466E0,5.466290116E-1,-5.663049817E-1,-8.172439933E-1,1.134633136E0
6.085558838E0,5.284879804E-1,-4.646329880E-1,-8.954899907E-1,1.138896695E0
6.090570298E0,4.997110069E-1,-3.944950104E-1,-9.189770222E-1,1.117969665E0
6.095581932E0,4.074240029E-1,-3.879869878E-1,-8.480880260E-1,1.017733521E0
6.100593319E0,1.656010002E-1,-3.579750061E-1,-9.800500274E-1,1.056441126E0
6.105604778E0,4.305600002E-2,-3.312839866E-1,-1.123613954E0,1.172224900E0
6.110616189E0,-6.334999949E-2,-3.506669998E-1,-1.255900025E0,1.305475178E0
6.115627802E0,-1.518860012E-1,-3.937239945E-1,-1.305732965E0,1.372234134E0
6.120639189E0,-1.447770000E-1,-4.424229860E-1,-1.166563034E0,1.256012655E0
6.125650667E0,-2.324219942E-1,-8.488749862E-1,-1.693174005E0,1.908257565E0
6.130662054E0,-6.591000129E-3,-4.788820148E-1,-1.123564005E0,1.221379343E0
6.135673663E0,-3.923630118E-1,-6.214370131E-1,-6.368340254E-1,9.724660767E-1
6.140685127E0,-2.465620041E-1,-6.378430128E-1,-6.309440136E-1,9.304444525E-1
6.145696501E0,-1.301420033E-1,-7.129240036E-1,-7.181190252E-1,1.020241398E0
6.150708115E0,-7.737900317E-2,-7.478119731E-1,-7.421560287E-1,1.056411770E0
6.155719502E0,-1.093360037E-1,-8.007240295E-1,-8.999670148E-1,1.209567675E0
6.160730942E0,-1.526309997E-1,-7.744820118E-1,-1.112422943E0,1.364039374E0
6.165742557E0,-1.842869967E-1,-8.030599952E-1,-1.447777033E0,1.665810731E0
6.170753944E0,-1.108630002E-1,-8.024780154E-1,-1.729626060E0,1.909939234E0
6.175765404E0,3.175999969E-3,-7.414730191E-1,-1.812433958E0,1.958241348E0
6.180777019E0,1.509560049E-1,-6.845949888E-1,-1.791924000E0,1.924175053E0
6.185788406E0,2.874290049E-1,-6.198400259E-1,-1.665598989E0,1.800288055E0
6.190799869E0,4.896290004E-1,-5.633029938E-1,-1.444583058E0,1.625997243E0
6.195811485E0,7.454000115E-1,-4.794859886E-1,-2.033653021E0,2.218394149E0
6.200822948E0,4.752700031E-1,-5.416659713E-1,-2.347794056E0,2.455895057E0
6.205834362E0,7.180050015E-1,-4.839380085E-1,-7.148950100E-1,1.122854422E0
6.210845746E0,5.898929834E-1,-4.850859940E-1,-1.110439971E-1,7.717596276E-1
6.215857360E0,3.518599868E-1,-6.283389926E-1,-6.477899849E-2,7.230571613E-1
6.220868751E0,3.061699867E-1,-7.919189930E-1,3.672499955E-2,8.498379127E-1
6.225880442E0,2.607110143E-1,-9.816190004E-1,2.988429964E-1,1.058703562E0
6.230891842E0,2.244649976E-1,-1.159991026E0,4.825629890E-1,1.276256539E0
6.235903227E0,2.080940008E-1,-1.352126002E0,5.674539804E-1,1.481064435E0
6.240914687E0,1.395010054E-1,-1.471037984E0,5.096679926E-1,1.563065815E0
6.245926073E0,2.351699956E-2,-1.569221973E0,3.350610137E-1,1.604766816E0
6.250937687E0,-7.051099837E-2,-1.694448948E0,1.486160010E-1,1.702414683E0
6.255949083E0,-1.787990034E-1,-1.837025046E0,-4.540700093E-2,1.846264309E0
6.260960543E0,-1.915750057E-1,-2.011249065E0,-2.066639960E-1,2.030894826E0
6.265971939E0,9.262769818E-1,-2.245688915E0,2.273849994E-1,2.439838456E0
6.270983630E0,-6.383829713E-1,-2.365520954E0,-5.425779819E-1,2.509504547E0
6.275995016E0,-1.046138048E0,-2.241955996E0,-5.451740026E-1,2.533374468E0
6.281006634E0,-7.019969821E-1,-1.844043970E0,-5.004559755E-1,2.035621308E0
6.286018020E0,-5.481629968E-1,-1.743635058E0,-5.829870105E-1,1.918494134E0
6.291029480E0,-5.464659929E-1,-1.883255959E0,-7.785949707E-1,2.109855022E0
6.296040887E0,-1.298760027E-1,-1.324725986E0,-8.676699996E-1,1.588904636E0
6.301052500E0,-2.096789926E-1,-1.331454992E0,-9.482610226E-1,1.648009904E0
6.306063963E0,1.187260002E-1,-1.080134988E0,-1.518519998E0,1.867268175E0
6.311075549E0,1.999160051E-1,-7.761430144E-1,-2.129801035E0,2.275613508E0
6.316086936E0,-2.498410046E-1,-3.831349909E-1,-2.152487040E0,2.200548433E0
6.321098320E0,-7.169730067E-1,1.242619976E-1,-1.943282008E0,2.075050915E0
6.326109770E0,-1.173913002E0,7.314280272E-1,-1.680876970E0,2.176788020E0
6.331121385E0,-1.405315042E0,1.434584022E0,-1.367051959E0,2.429356446E0
