"Time (s)","Linear Acceleration x (m/s^2)","Linear Acceleration y (m/s^2)","Linear Acceleration z (m/s^2)","Absolute acceleration (m/s^2)"
2.503750500E-2,5.311999936E-3,7.750599831E-2,-1.106830001E0,1.109553085E0
3.004827400E-2,-7.162699848E-2,1.605149955E-1,-9.824650288E-1,9.980646389E-1
3.505904300E-2,-2.479380071E-1,2.257499993E-1,-7.565119863E-1,8.274942313E-1
4.007012500E-2,-3.422929943E-1,2.563450038E-1,-5.703179836E-1,7.128392928E-1
4.508089700E-2,-2.345820069E-1,2.472960055E-1,-4.276500046E-1,5.468716109E-1
5.009189000E-2,8.829999715E-2,2.532019913E-1,-2.273290008E-1,3.515488764E-1
5.510273800E-2,4.622940123E-1,2.517870069E-1,8.696500212E-2,5.335497748E-1
6.011350200E-2,7.867699862E-1,2.619299889E-1,6.012369990E-1,1.024255954E0
6.512427100E-2,1.030503035E0,3.015559912E-1,1.104861021E0,1.540646097E0
7.013503600E-2,1.249268055E0,3.809530139E-1,1.521662951E0,2.005306462E0
7.514603400E-2,1.378548026E0,4.846470058E-1,1.794317961E0,2.314055817E0
8.015680500E-2,1.403808951E0,5.499879718E-1,1.915745020E0,2.437877216E0
8.516763500E-2,1.355532050E0,5.622799993E-1,1.847597003E0,2.359500079E0
9.017863500E-2,1.237501025E0,5.669069886E-1,1.666159034E0,2.151482802E0
9.518940600E-2,1.048715949E0,5.327519774E-1,1.445305943E0,1.863475002E0
1.002002450E-1,7.930780053E-1,4.526970088E-1,1.201490998E0,1.509134826E0
1.052110170E-1,4.532459974E-1,3.494960070E-1,9.476879835E-1,1.107109709E0
1.102220240E-1,1.597580016E-1,2.484630048E-1,6.850140095E-1,7.459897298E-1
1.152327950E-1,-7.055599988E-2,1.354970038E-1,4.365600049E-1,4.625172700E-1
1.202435500E-1,-2.190189958E-1,1.018899959E-2,1.586550027E-1,2.706372962E-1
1.252543940E-1,-3.096359968E-1,-1.081449986E-1,-6.572400033E-2,3.344987824E-1
1.302653940E-1,-3.445949852E-1,-2.049950063E-1,-2.348680049E-1,4.646844480E-1
1.352761660E-1,-3.351689875E-1,-2.600249946E-1,-4.108349979E-1,5.905392819E-1
1.402870100E-1,-3.202059865E-1,-2.762509882E-1,-5.623499751E-1,7.036220412E-1
1.452977810E-1,-2.818270028E-1,-2.282650024E-1,-6.605719924E-1,7.535825953E-1
1.503087880E-1,-2.121199965E-1,-1.447190046E-1,-6.844409704E-1,7.310252562E-1
1.553195590E-1,-1.441809982E-1,-7.456299663E-2,-6.560429931E-1,6.758255762E-1
1.603304030E-1,-2.682299912E-2,-6.999900192E-2,-5.437189937E-1,5.488621663E-1
1.653413980E-1,1.248650029E-1,-7.080599666E-2,-3.980869949E-1,4.231761024E-1
1.703521700E-1,2.617419958E-1,-6.975799799E-2,-2.451429963E-1,3.653356529E-1
1.753629350E-1,3.946399987E-1,-6.994500011E-2,-1.487479955E-1,4.275032137E-1
1.803737040E-1,4.963220060E-1,-3.211800009E-2,-9.097799659E-2,5.056125942E-1
1.853845480E-1,5.586829782E-1,-1.789500006E-2,-4.303500056E-2,5.606236816E-1
1.903955430E-1,5.871210098E-1,1.357899979E-2,5.737100169E-2,5.900736405E-1
1.954063150E-1,6.059560180E-1,6.933499873E-2,1.960590035E-1,6.406474620E-1
2.004171590E-1,6.643800139E-1,1.959400028E-1,3.758440018E-1,7.880685258E-1
2.054281590E-1,7.431229949E-1,3.466550112E-1,5.231840014E-1,9.726885327E-1
2.104389300E-1,8.562570214E-1,4.728800058E-1,5.546690226E-1,1.124477350E0
2.154497030E-1,9.612609744E-1,5.085129738E-1,4.843330085E-1,1.190456454E0
2.204605470E-1,9.722830057E-1,4.603340030E-1,3.715539873E-1,1.138109838E0
2.254713190E-1,8.569719791E-1,3.378109932E-1,2.613250017E-1,9.575009121E-1
2.304822880E-1,6.630499959E-1,1.690399945E-1,1.698700041E-1,7.050288186E-1
2.354930590E-1,4.133580029E-1,3.522299975E-2,1.142060012E-1,4.302888669E-1
2.405038980E-1,1.554130018E-1,-8.529800177E-2,7.273399830E-2,1.916225058E-1
2.455148980E-1,-1.154460013E-1,-2.489989996E-1,3.538899869E-2,2.767321128E-1
2.505256690E-1,-3.251380026E-1,-4.148879945E-1,4.459400102E-2,5.289947010E-1
2.555365130E-1,-4.550360143E-1,-4.880140126E-1,3.919500113E-2,6.683948675E-1
2.605472850E-1,-5.285379887E-1,-5.269889832E-1,4.096699879E-2,7.474945410E-1
2.655582880E-1,-5.357030034E-1,-5.172740221E-1,-2.355399914E-2,7.450536307E-1
2.705690590E-1,-4.993180037E-1,-4.861350060E-1,-1.015190035E-1,7.042384687E-1
2.755798320E-1,-4.326179922E-1,-4.363439977E-1,-1.642989963E-1,6.360413286E-1
2.805906760E-1,-3.621050119E-1,-3.821290135E-1,-2.000479996E-1,5.631712216E-1
2.856014630E-1,-2.672759891E-1,-3.066830039E-1,-1.779019982E-1,4.440045497E-1
2.906124610E-1,-1.511809975E-1,-2.098699957E-1,-1.076290011E-1,2.801519427E-1
2.956232270E-1,-2.590899915E-2,-8.213900030E-2,2.991100028E-2,9.117433600E-2
3.006340710E-1,9.953799844E-2,6.657700241E-2,1.800030023E-1,2.161975745E-1
3.056448470E-1,2.448569983E-1,2.119890004E-1,2.759670019E-1,4.255021411E-1
3.106558450E-1,4.057239890E-1,3.373390138E-1,3.107570112E-1,6.123556854E-1
3.156666930E-1,5.938130021E-1,4.358569980E-1,3.056930006E-1,7.975170310E-1
3.206774770E-1,7.365520000E-1,4.923090041E-1,2.914710045E-1,9.326480315E-1
3.256882460E-1,7.960439920E-1,5.170450211E-1,2.443010062E-1,9.801553819E-1
3.306992390E-1,7.934529781E-1,4.945180118E-1,1.806769967E-1,9.522393972E-1
3.357100870E-1,7.281659842E-1,4.516879916E-1,1.005520001E-1,8.627621033E-1
3.407208560E-1,5.974810123E-1,3.746959865E-1,-2.233999968E-2,7.056059226E-1
3.457318590E-1,4.007329941E-1,2.665660083E-1,-1.593640000E-1,5.069923607E-1
3.507426310E-1,1.906809956E-1,1.281030029E-1,-3.061720133E-1,3.827674531E-1
3.557534900E-1,-1.388700027E-2,-3.260000085E-4,-4.626750052E-1,4.628834794E-1
3.607644900E-1,-2.136040032E-1,-1.184699982E-1,-5.908179879E-1,6.393181567E-1
3.657752610E-1,-3.976089954E-1,-1.916020066E-1,-7.021309733E-1,8.293323495E-1
3.707857950E-1,-5.761269927E-1,-2.883279920E-1,-7.899129987E-1,1.019322269E0
3.757967930E-1,-6.435149908E-1,-3.805859983E-1,-8.856769800E-1,1.159043122E0
3.808076460E-1,-7.070549726E-1,-4.246079922E-1,-8.034740090E-1,1.151429183E0
3.858184150E-1,-7.606570125E-1,-4.186249971E-1,-6.221510172E-1,1.068137569E0
3.908294130E-1,-7.482619882E-1,-3.744060099E-1,-4.963949919E-1,9.728740161E-1
3.958402410E-1,-6.904069781E-1,-3.122720122E-1,-3.876090050E-1,8.511265158E-1
4.008510100E-1,-5.881350040E-1,-2.287359983E-1,-3.121109903E-1,7.040143536E-1
4.058617800E-1,-4.657819867E-1,-1.590750068E-1,-2.224519998E-1,5.401320294E-1
4.108727830E-1,-3.330299854E-1,-8.132699877E-2,-9.015099704E-2,3.544717960E-1
4.158835540E-1,-1.432490051E-1,2.407999942E-3,7.724799961E-2,1.627677160E-1
4.208944280E-1,1.467700023E-2,8.782300353E-2,2.583810091E-1,2.732929566E-1
4.259051990E-1,1.358740032E-1,1.374029964E-1,4.222050011E-1,4.643257382E-1
4.309161870E-1,2.157910019E-1,1.632059962E-1,5.093399882E-1,5.767401298E-1
4.359269590E-1,2.446780056E-1,1.582500041E-1,5.200750232E-1,5.961446300E-1
4.409378080E-1,2.362429947E-1,1.300269961E-1,4.617240131E-1,5.347025683E-1
4.459485790E-1,1.869630069E-1,9.301800281E-2,3.631300032E-1,4.188924850E-1
4.509595770E-1,1.005320027E-1,2.913999930E-2,2.526910007E-1,2.735115445E-1
4.559704250E-1,6.221000105E-3,-4.962100089E-2,9.458400309E-2,1.069910193E-1
4.609811940E-1,-1.189090014E-1,-1.402499974E-1,-7.064399868E-2,1.969771228E-1
4.659921770E-1,-2.438189983E-1,-2.076079994E-1,-2.641470134E-1,4.151173690E-1
4.710029490E-1,-3.387930095E-1,-2.285639942E-1,-4.307000041E-1,5.937379020E-1
4.760137130E-1,-3.912129998E-1,-2.369280010E-1,-5.919499993E-1,7.480556735E-1
4.810245570E-1,-4.306530058E-1,-2.301629931E-1,-7.193660140E-1,8.694391738E-1
4.860353380E-1,-4.508860111E-1,-2.297459990E-1,-8.490059972E-1,9.883787747E-1
4.910463360E-1,-4.667919874E-1,-2.465350032E-1,-9.336069822E-1,1.072518655E0
4.960571070E-1,-4.995799959E-1,-2.913810015E-1,-1.002313972E0,1.157201952E0
5.010679430E-1,-5.167229772E-1,-3.491379917E-1,-1.029312015E0,1.203487929E0
5.060787140E-1,-5.450779796E-1,-4.162989855E-1,-9.864590168E-1,1.201464207E0
5.110897120E-1,-5.573509932E-1,-5.017229915E-1,-8.766949773E-1,1.153672472E0
5.161005400E-1,-5.319709778E-1,-5.557860136E-1,-7.025399804E-1,1.041851063E0
5.211113090E-1,-4.889219999E-1,-5.682569742E-1,-5.088019967E-1,9.060023083E-1
5.261223070E-1,-3.703820109E-1,-5.507670045E-1,-3.739340007E-1,7.618095327E-1
5.311330740E-1,-1.931329966E-1,-4.742250144E-1,-2.114370018E-1,5.539813394E-1
5.361438430E-1,7.565300167E-2,-3.400509953E-1,9.716000408E-3,3.485002966E-1
5.411546870E-1,3.572750092E-1,-1.896169931E-1,2.563399971E-1,4.788634777E-1
5.461654580E-1,5.593450069E-1,-7.683899999E-2,5.190749764E-1,7.669484337E-1
5.511764420E-1,7.035859823E-1,-3.423000127E-2,7.549870014E-1,1.032574598E0
5.561872130E-1,7.874770164E-1,-2.359299920E-2,9.406690001E-1,1.227002383E0
5.611980580E-1,8.034470081E-1,-4.480500147E-2,1.105195045E0,1.367110336E0
5.662090390E-1,7.672399879E-1,-7.965700328E-2,1.172633052E0,1.403592074E0
5.712198100E-1,6.941450238E-1,-1.184649989E-1,1.232396007E0,1.419391133E0
5.762305740E-1,5.815399885E-1,-1.875230074E-1,1.216950059E0,1.361734586E0
5.812414180E-1,4.005070031E-1,-2.271099985E-1,1.202847958E0,1.287954976E0
5.862521900E-1,1.629959941E-1,-2.468899935E-1,1.194893003E0,1.230971832E0
5.912632020E-1,-5.887699872E-2,-2.635059953E-1,1.176347017E0,1.206935879E0
5.962739730E-1,-2.135729939E-1,-2.483129948E-1,1.090641975E0,1.138759275E0
6.012848170E-1,-2.993220091E-1,-2.658559978E-1,9.758089781E-1,1.054739891E0
6.062955930E-1,-2.940489948E-1,-2.943699956E-1,7.954850197E-1,8.977276437E-1
6.113065910E-1,-2.275539935E-1,-3.054609895E-1,5.711140037E-1,6.864826591E-1
6.163173570E-1,-1.569599956E-1,-3.010669947E-1,3.288939893E-1,4.727039578E-1
6.213282020E-1,-7.300899923E-2,-2.627609968E-1,5.947500095E-2,2.791252965E-1
6.263389830E-1,-1.109800022E-2,-2.072259933E-1,-2.227060050E-1,3.044071986E-1
6.313499810E-1,6.352300197E-2,-1.271079928E-1,-4.485319853E-1,4.705024500E-1
6.363607520E-1,1.934220046E-1,4.548300058E-2,-5.796399713E-1,6.127505785E-1
6.413715960E-1,3.440200090E-1,2.549819946E-1,-6.829720140E-1,8.061118756E-1
6.463825960E-1,5.002949834E-1,4.550440013E-1,-7.137050033E-1,9.832268025E-1
6.513933680E-1,5.924350023E-1,6.212450266E-1,-6.912959814E-1,1.102186349E0
6.564041270E-1,6.737380028E-1,7.316079736E-1,-6.522560120E-1,1.189374217E0
6.614149710E-1,7.470530272E-1,8.090010285E-1,-5.826470256E-1,1.245812364E0
6.664259710E-1,7.826470137E-1,8.503419757E-1,-4.589900076E-1,1.243498955E0
6.714367470E-1,8.145110011E-1,8.657330275E-1,-3.388580084E-1,1.236020467E0
6.764475910E-1,8.408259749E-1,8.560569882E-1,-1.938280016E-1,1.215479815E0
6.814583580E-1,8.624519706E-1,8.404870033E-1,-4.533499852E-2,1.205112885E0
6.864691270E-1,8.824020028E-1,8.146359921E-1,1.304460019E-1,1.208007141E0
6.914801250E-1,8.873980045E-1,7.570829988E-1,2.642039955E-1,1.196015734E0
6.964909680E-1,8.735560179E-1,6.658020020E-1,3.798019886E-1,1.162171232E0
7.015017370E-1,8.160960078E-1,5.296760201E-1,4.890210032E-1,1.088903541E0
7.065127540E-1,7.070940137E-1,3.745920062E-1,5.324130058E-1,9.611267992E-1
7.115235260E-1,5.267310143E-1,1.983779967E-1,5.555469990E-1,7.908424995E-1
7.165343050E-1,5.797259808E-1,-3.878540099E-1,1.745229959E-1,7.190071083E-1
7.215451490E-1,6.956130266E-1,-9.444220066E-1,-6.779609919E-1,1.354784675E0
7.265559200E-1,-1.240150034E-1,-9.740650058E-1,-3.747250140E-1,1.051000092E0
7.315666890E-1,-1.094488025E0,-1.075996041E0,4.407500103E-2,1.535452416E0
7.365776870E-1,-1.457067013E0,-1.062252998E0,1.630280018E-1,1.810525847E0
7.415885500E-1,-1.327559948E0,-8.608819842E-1,1.601729989E-1,1.590342289E0
7.465993190E-1,-1.146689057E0,-6.749370098E-1,1.547829956E-1,1.339549752E0
7.516100880E-1,-1.047337055E0,-5.839440227E-1,4.363799840E-2,1.199920749E0
7.566211050E-1,-9.039779902E-1,-4.851610065E-1,-8.491799980E-2,1.029450570E0
7.616318760E-1,-6.760129929E-1,-3.112240136E-1,-2.472369969E-1,7.842066601E-1
7.666427210E-1,-3.568910062E-1,-7.980299741E-2,-3.764080107E-1,5.248072973E-1
7.716534920E-1,3.828000044E-3,1.597770005E-1,-4.490529895E-1,4.766465471E-1
7.766644900E-1,3.424279988E-1,3.935979903E-1,-3.703210056E-1,6.397764918E-1
7.816752470E-1,5.489599705E-1,6.179080009E-1,-8.569200337E-2,8.309695941E-1
7.866860910E-1,7.451519966E-1,7.744079828E-1,1.629319936E-1,1.086971047E0
7.916968620E-1,9.770489931E-1,8.867220283E-1,2.968899906E-1,1.352421664E0
7.967078600E-1,1.177291036E0,9.360799789E-1,3.115890026E-1,1.536016802E0
8.017187090E-1,1.316689968E0,9.370390177E-1,2.239820063E-1,1.631527668E0
8.067294780E-1,1.387310982E0,9.044499993E-1,6.278000027E-2,1.657287811E0
8.117402470E-1,1.358108044E0,8.043140173E-1,-1.151650026E-1,1.582605913E0
8.167512450E-1,1.233935952E0,6.366279721E-1,-2.772310078E-1,1.415891995E0
8.217620930E-1,9.942799807E-1,3.933709860E-1,-3.220579922E-1,1.116716062E0
8.267728630E-1,6.588609815E-1,1.060910001E-1,-2.483980060E-1,7.120777082E-1
8.317838610E-1,2.788380086E-1,-1.576319933E-1,-5.416600034E-2,3.248575626E-1
8.367946270E-1,-9.155900031E-2,-3.798559904E-1,2.227640003E-1,4.497748590E-1
8.418054710E-1,-3.975349963E-1,-5.715259910E-1,5.612699986E-1,8.942594942E-1
8.468162570E-1,-6.014490128E-1,-7.351459861E-1,8.497859836E-1,1.274486859E0
8.518272550E-1,-7.296559811E-1,-8.657879829E-1,1.105898023E0,1.582718269E0
8.568380300E-1,-7.847719789E-1,-9.883689880E-1,1.301110983E0,1.812630714E0
8.618488750E-1,-7.813450098E-1,-1.029764056E0,1.399399042E0,1.905054255E0
8.668596460E-1,-7.050420046E-1,-9.952219725E-1,1.403350949E0,1.859286124E0
8.718703910E-1,-5.725160241E-1,-8.943799734E-1,1.317792058E0,1.692414265E0
8.768813890E-1,-4.214780033E-1,-7.197219729E-1,1.140931964E0,1.413283118E0
8.818922370E-1,-2.941049933E-1,-5.403739810E-1,8.459540009E-1,1.046011452E0
8.869029830E-1,-1.530819982E-1,-3.196080029E-1,4.620989859E-1,5.823391164E-1
8.919139810E-1,2.391999960E-2,-9.319400042E-2,6.573499739E-2,1.165262974E-1
8.969247470E-1,2.048500031E-1,1.045259982E-1,-3.007589877E-1,3.786095307E-1
9.019355160E-1,3.913829923E-1,2.943210006E-1,-5.949879885E-1,7.705947083E-1
9.069463550E-1,5.065559745E-1,4.388929904E-1,-7.798389792E-1,1.028287336E0
9.119571260E-1,5.387330055E-1,4.684469998E-1,-9.047639966E-1,1.152507585E0
9.169681240E-1,5.067449808E-1,3.812440038E-1,-9.025850296E-1,1.103085310E0
9.219788820E-1,4.499729872E-1,2.024859935E-1,-8.203650117E-1,9.573270179E-1
9.269897260E-1,2.909319997E-1,3.648000071E-3,-6.061400175E-1,6.723544134E-1
9.320004730E-1,1.419650018E-1,-1.145879999E-1,-3.307729959E-1,3.777502433E-1
9.370114710E-1,7.244899869E-2,-1.416109949E-1,-7.895699888E-2,1.775858637E-1
9.420222270E-1,2.218200080E-2,-1.689019948E-1,1.782419980E-1,2.465565551E-1
9.470329970E-1,-7.871499658E-2,-2.580949962E-1,4.072510004E-1,4.885309152E-1
9.520438410E-1,-2.166199982E-1,-4.027040005E-1,4.889110029E-1,6.694241588E-1
9.570548370E-1,-3.086149991E-1,-5.099470019E-1,3.861989975E-1,7.102385713E-1
9.620656850E-1,-3.796649873E-1,-5.841519833E-1,1.812669933E-1,7.198866334E-1
9.670764730E-1,-4.592149854E-1,-6.304060221E-1,1.059500035E-2,7.800015445E-1
9.720872420E-1,-5.667359829E-1,-6.324539781E-1,-8.732400090E-2,8.537055639E-1
9.770980170E-1,-5.669460297E-1,-5.286870003E-1,-2.168260068E-1,8.049541987E-1
9.821090150E-1,-5.562139750E-1,-3.937669992E-1,-3.395079970E-1,7.613751478E-1
9.871198630E-1,-5.725010037E-1,-2.781749964E-1,-3.294619918E-1,7.167174701E-1
9.921306220E-1,-5.339630246E-1,-1.152260005E-1,-2.633450031E-1,6.064191072E-1
9.971416200E-1,-4.773479998E-1,8.039700240E-2,-1.435309947E-1,5.049019086E-1
1.002152468E0,-3.705810010E-1,2.895829976E-1,2.260299958E-2,4.708497493E-1
1.007163242E0,-1.307049990E-1,4.657509923E-1,5.807099864E-2,4.872166094E-1
1.012174012E0,7.548800111E-2,5.028939843E-1,1.717720032E-1,5.367554554E-1
1.017185010E0,2.817960083E-1,5.059440136E-1,2.227090001E-1,6.204737174E-1
1.022195781E0,4.698989987E-1,4.441719949E-1,1.749369949E-1,6.698483278E-1
1.027206535E0,5.563399792E-1,2.842499912E-1,1.353459954E-1,6.392423393E-1
1.032217379E0,4.651499987E-1,1.324099954E-2,1.674949974E-1,4.945648789E-1
1.037228151E0,4.112960100E-1,-1.816910058E-1,-1.635899954E-2,4.499373804E-1
1.042239149E0,2.428810000E-1,-3.337149918E-1,-1.240419969E-1,4.309794577E-1
1.047249997E0,3.119100071E-2,-4.211489856E-1,-3.171080053E-1,5.281068392E-1
1.052261000E0,-1.832730025E-1,-4.471600056E-1,-4.827759862E-1,6.830912947E-1
1.057271540E0,-4.430460036E-1,-4.853639901E-1,-4.499669969E-1,7.964535532E-1
1.062282557E0,-5.820029974E-1,-4.947040081E-1,-3.197259903E-1,8.280605373E-1
1.067293329E0,-5.984200239E-1,-4.390999973E-1,-2.206439972E-1,7.743378501E-1
1.072304188E0,-5.727689862E-1,-3.546029925E-1,-6.188999861E-2,6.764894425E-1
1.077315188E0,-4.620850086E-1,-2.679649889E-1,1.037760004E-1,5.441481864E-1
1.082325959E0,-1.890570074E-1,-2.202769965E-1,1.659719944E-1,3.343818329E-1
1.087336733E0,-4.336399958E-2,-1.639609933E-1,1.923470050E-1,2.564391041E-1
1.092347502E0,2.765600011E-2,-1.015880033E-1,2.071810067E-1,2.323982493E-1
1.097358347E0,4.275599867E-2,-2.280900069E-2,9.892900288E-2,1.101602176E-1
1.102369118E0,3.323999932E-3,4.442400113E-2,-5.747000221E-3,4.491735592E-2
1.107380116E0,-3.591699898E-2,1.011070013E-1,-7.619400322E-2,1.315985663E-1
1.112390978E0,-4.726200178E-2,1.760369986E-1,-1.125629991E-1,2.142268668E-1
1.117401747E0,4.289900139E-2,2.548229992E-1,-1.439049989E-1,2.957764933E-1
1.122412759E0,1.753789932E-1,3.794310093E-1,-1.556099951E-1,4.460270761E-1
1.127423607E0,2.858090103E-1,4.449569881E-1,-6.747700274E-2,5.331291190E-1
1.132434392E0,3.562049866E-1,4.714219868E-1,4.607300088E-2,5.926579144E-1
1.137445390E0,4.484570026E-1,4.724290073E-1,7.764299959E-2,6.559964066E-1
1.142456161E0,5.153530240E-1,4.285610020E-1,2.503399923E-2,6.707309244E-1
1.147466930E0,4.710240066E-1,3.337250054E-1,-4.488800094E-2,5.790085722E-1
1.152477699E0,3.226200044E-1,1.691730022E-1,-1.577799954E-2,3.646259963E-1
1.157488529E0,1.381929964E-1,8.988000453E-3,3.118699975E-2,1.419532224E-1
1.162499300E0,3.070000093E-4,-1.200790033E-1,1.296999957E-2,1.207778215E-1
1.167510298E0,-1.667679995E-1,-2.442229986E-1,2.297000028E-2,2.966210708E-1
1.172521146E0,-2.807910144E-1,-3.015420139E-1,-1.919299923E-2,4.124797585E-1
1.177531915E0,-3.808670044E-1,-2.821289897E-1,-5.531800166E-2,4.771965247E-1
1.182542913E0,-4.795610011E-1,-2.738159895E-1,-5.466999859E-2,5.549259037E-1
1.187553680E0,-5.492759943E-1,-2.479200065E-1,-5.415000021E-3,6.026589166E-1
1.192564449E0,-5.347260237E-1,-1.892589927E-1,-1.009400003E-2,5.673206990E-1
1.197575288E0,-5.404000282E-1,-1.472979933E-1,-1.935999957E-3,5.601184138E-1
1.202586059E0,-5.328040123E-1,-7.672899961E-2,3.107300028E-2,5.391966119E-1
1.207597057E0,-4.536300004E-1,3.291000053E-2,-1.586999977E-3,4.548249816E-1
1.212607828E0,-3.697850108E-1,1.232270002E-1,-2.403999912E-3,3.897840774E-1
1.217618673E0,-3.018789887E-1,1.601590067E-1,-1.747399941E-2,3.421800285E-1
1.222629444E0,-2.072670013E-1,1.988029927E-1,-4.689199850E-2,2.910001705E-1
1.227640442E0,-1.050710008E-1,2.185180038E-1,-7.906799763E-2,2.550329027E-1
1.232651213E0,-2.800800093E-2,1.623979956E-1,-6.486900151E-2,1.771032028E-1
1.237662053E0,2.005100064E-2,5.171699822E-2,6.901000161E-3,5.589556632E-2
1.242672825E0,6.112600118E-2,-1.194669977E-1,5.204999819E-2,1.439373262E-1
1.247683823E0,1.003519967E-1,-3.060429990E-1,4.447399825E-2,3.251319379E-1
1.252694680E0,1.398880035E-1,-4.267739952E-1,6.752000190E-3,4.491662120E-1
1.257705449E0,1.350979954E-1,-4.719130099E-1,-2.894300036E-2,4.917225382E-1
1.262716218E0,8.895199746E-2,-4.531140029E-1,-6.165799871E-2,4.658609946E-1
1.267727226E0,-1.411699969E-2,-3.862789869E-1,-8.340699971E-2,3.954332725E-1
1.272737997E0,-9.164900333E-2,-2.706049979E-1,-8.656299859E-2,2.985293242E-1
1.277748827E0,-1.328320056E-1,-1.569789946E-1,-1.284909993E-1,2.424802742E-1
1.282759598E0,-1.596139967E-1,-7.874599844E-2,-2.452220023E-1,3.030039449E-1
1.287770367E0,-2.074780017E-1,-3.945299983E-2,-3.534440100E-1,4.117357509E-1
1.292781146E0,-2.342319936E-1,-3.785299882E-2,-4.538039863E-1,5.120893812E-1
1.297792144E0,-2.874929905E-1,-6.943999976E-2,-4.777260125E-1,5.618685577E-1
1.302802992E0,-3.273130059E-1,-9.753700346E-2,-4.304339886E-1,5.494731016E-1
1.307813767E0,-3.470590115E-1,-1.219829991E-1,-3.527640104E-1,5.096785816E-1
1.312824536E0,-3.306260109E-1,-1.357859969E-1,-2.758609951E-1,4.514982665E-1
1.317835534E0,-2.929939926E-1,-1.340160072E-1,-1.711769998E-1,3.648387796E-1
1.322846372E0,-2.347069979E-1,-1.169150025E-1,-3.871100023E-2,2.650566622E-1
1.327857141E0,-1.625490040E-1,-6.623400003E-2,7.410600036E-2,1.905277427E-1
1.332868134E0,-8.091499656E-2,-2.001399919E-2,1.792030036E-1,1.976398577E-1
1.337878983E0,4.079100117E-2,5.711000040E-2,2.958559990E-1,3.040661607E-1
1.342889752E0,1.555490047E-1,1.221740022E-1,3.763050139E-1,4.251205043E-1
1.347900497E0,2.454220057E-1,1.267060041E-1,4.750770032E-1,5.495311923E-1
1.352911266E0,3.163880110E-1,9.928099811E-2,4.751780033E-1,5.794413041E-1
1.357922250E0,3.298499882E-1,5.188199878E-2,4.032619894E-1,5.235580088E-1
1.362933098E0,2.757680118E-1,1.289100014E-2,3.076330125E-1,4.133427689E-1
1.367943868E0,1.814309955E-1,-1.586700045E-2,1.551710069E-1,2.392634724E-1
1.372954880E0,7.775899768E-2,-3.007899970E-2,-1.315000001E-3,8.338427410E-2
1.377965651E0,-2.207900025E-2,-1.875399984E-2,-1.520549953E-1,1.547899104E-1
1.382976434E0,-1.124169976E-1,-3.809599951E-2,-2.259770036E-1,2.552537809E-1
1.387987278E0,-1.784700006E-1,-4.292000085E-2,-2.328599989E-1,2.965087633E-1
1.392998050E0,-2.173469961E-1,-3.587599844E-2,-1.848859936E-1,2.875928278E-1
1.398009053E0,-2.909030020E-1,-5.206200108E-2,-5.598700047E-2,3.007815699E-1
1.403019824E0,-3.476800025E-1,-3.695400059E-2,1.777579933E-1,3.922306547E-1
1.408030658E0,-3.668009937E-1,-1.079200022E-2,4.065780044E-1,5.476907064E-1
1.413041429E0,-3.742100000E-1,3.679300100E-2,5.928450227E-1,7.020342370E-1
1.418052427E0,-3.626739979E-1,8.373399824E-2,7.487289906E-1,8.361452700E-1
1.423063189E0,-3.083339930E-1,9.409199655E-2,8.191850185E-1,8.803336013E-1
1.428074033E0,-2.159339935E-1,4.936699942E-2,7.896159887E-1,8.200963357E-1
1.433084809E0,-1.041790023E-1,-2.177999914E-2,6.314079762E-1,6.403152858E-1
1.438095578E0,4.050499946E-2,-7.216399908E-2,4.188649952E-1,4.269615697E-1
1.443106576E0,1.963340044E-1,-7.422800362E-2,1.236890033E-1,2.436304729E-1
1.448117337E0,3.187060058E-1,-2.833200060E-2,-1.604879946E-1,3.579561660E-1
1.453128182E0,4.246450067E-1,6.537199765E-2,-4.000270069E-1,5.870421501E-1
1.458138943E0,5.191799998E-1,2.186290026E-1,-5.923659801E-1,8.174619058E-1
1.463149712E0,6.001219749E-1,3.867430091E-1,-7.353270054E-1,1.024901139E0
1.468160710E0,6.515979767E-1,5.242499709E-1,-8.057339787E-1,1.161303233E0
1.473171554E0,6.627479792E-1,5.844489932E-1,-7.952370048E-1,1.188788208E0
1.478182324E0,6.648349762E-1,5.848129988E-1,-6.739760041E-1,1.112769268E0
1.483193346E0,6.210399866E-1,5.132520199E-1,-5.072979927E-1,9.520869468E-1
1.488204117E0,5.165659785E-1,3.804250062E-1,-3.336830139E-1,7.231237441E-1
1.493214961E0,3.602170050E-1,1.942189932E-1,-1.699669957E-1,4.431321334E-1
1.498225727E0,1.718730032E-1,8.890000172E-3,3.408000106E-3,1.721365034E-1
1.503236725E0,-3.633499891E-2,-1.580920070E-1,1.440930068E-1,2.169702963E-1
1.508247486E0,-2.178120017E-1,-2.707560062E-1,2.744019926E-1,4.427723303E-1
1.513258331E0,-3.505559862E-1,-3.385959864E-1,3.758569956E-1,6.154715449E-1
1.518269102E0,-3.943359852E-1,-3.731859922E-1,4.320830107E-1,6.938763450E-1
1.523280100E0,-3.772749901E-1,-4.088959992E-1,4.479239881E-1,7.142606355E-1
1.528290871E0,-3.170830011E-1,-4.369300008E-1,4.235199988E-1,6.861622582E-1
1.533301659E0,-2.218399942E-1,-4.163520038E-1,3.044990003E-1,5.614994348E-1
1.538312429E0,-9.751299769E-2,-3.393140137E-1,1.511410028E-1,3.840395648E-1
1.543323288E0,4.300000146E-2,-2.071300000E-1,9.251000360E-3,2.117484782E-1
1.548334059E0,1.780779958E-1,-2.361500077E-2,-1.589120030E-1,2.398384155E-1
1.553345057E0,3.144510090E-1,2.011619955E-1,-3.029370010E-1,4.807456834E-1
1.558355919E0,4.219149947E-1,3.994159997E-1,-4.040920138E-1,7.076975054E-1
1.563366917E0,4.759620130E-1,5.585229993E-1,-5.057640076E-1,8.912266883E-1
1.568377688E0,4.646419883E-1,6.198089719E-1,-5.706499815E-1,9.621313529E-1
1.573388453E0,4.319429994E-1,5.936490297E-1,-6.142339706E-1,9.572237439E-1
1.578399297E0,3.627229929E-1,5.019580126E-1,-6.254680157E-1,8.801931916E-1
1.583410049E0,2.861590087E-1,3.776279986E-1,-5.954980254E-1,7.609913152E-1
1.588420818E0,2.141789943E-1,2.807079852E-1,-5.053359866E-1,6.164690373E-1
1.593431816E0,1.212520003E-1,1.835069954E-1,-3.290250003E-1,3.957705343E-1
1.598442588E0,3.147099912E-2,6.745699793E-2,-1.170620024E-1,1.387241247E-1
1.603453443E0,-6.426399946E-2,-6.489799917E-2,1.233609989E-1,1.534911984E-1
1.608464214E0,-1.817259938E-1,-2.328359932E-1,3.206560016E-1,4.359555113E-1
1.613475212E0,-2.808589935E-1,-4.313789904E-1,5.321279764E-1,7.403578803E-1
1.618485983E0,-3.850460052E-1,-6.120979786E-1,6.748989820E-1,9.891476116E-1
1.623496827E0,-4.663279951E-1,-7.462919950E-1,7.642580271E-1,1.165548743E0
1.628507599E0,-5.137330294E-1,-8.105909824E-1,7.630040050E-1,1.226032005E0
1.633518597E0,-5.378050208E-1,-8.098239899E-1,7.150440216E-1,1.206787922E0
1.638529368E0,-5.277550220E-1,-7.322580218E-1,6.044729948E-1,1.086330877E0
1.643540137E0,-4.454280138E-1,-5.897120237E-1,4.389410019E-1,8.595554604E-1
1.648550995E0,-3.375670016E-1,-4.003559947E-1,2.402919978E-1,5.761741466E-1
1.653561995E0,-1.985020041E-1,-1.876509935E-1,1.253429949E-1,3.005441854E-1
1.658572767E0,-1.092400029E-2,5.542000011E-2,5.797899887E-2,8.094612099E-2
1.663583536E0,1.959940046E-1,2.681629956E-1,1.842200011E-2,3.326626101E-1
1.668594385E0,3.919610083E-1,4.445709884E-1,-3.669799864E-2,5.938211337E-1
1.673605385E0,5.684459805E-1,5.787280202E-1,-1.052770019E-1,8.180099029E-1
1.678616156E0,6.913840175E-1,6.542419791E-1,-1.234830022E-1,9.598398193E-1
1.683626925E0,7.000210285E-1,6.542770267E-1,-1.443240047E-1,9.689877637E-1
1.688637770E0,6.328449845E-1,5.739300251E-1,-1.659869999E-1,8.703103655E-1
1.693648546E0,5.084639788E-1,4.246340096E-1,-1.961989999E-1,6.909006494E-1
1.698659544E0,3.171980083E-1,2.479149997E-1,-2.135130018E-1,4.557019042E-1
1.703670315E0,7.266300172E-2,-1.121500041E-2,-2.163369954E-1,2.284893512E-1
1.708681059E0,-1.774030030E-1,-2.946240008E-1,-1.953860074E-1,3.955386444E-1
1.713691904E0,-4.077729881E-1,-5.294899940E-1,-1.430210024E-1,6.834423683E-1
1.718702909E0,-5.802389979E-1,-6.895729899E-1,-8.003199846E-2,9.047614735E-1
1.723713680E0,-6.946740150E-1,-7.636629939E-1,-1.498300023E-2,1.032461934E0
1.728724449E0,-7.392160296E-1,-7.830060124E-1,1.690899953E-2,1.076951563E0
1.733735218E0,-7.204369903E-1,-7.498469949E-1,-1.484700013E-2,1.039961733E0
1.738746062E0,-6.775889993E-1,-6.893560290E-1,-7.884600013E-2,9.698222922E-1
1.743756834E0,-6.301710010E-1,-6.116989851E-1,-1.605979949E-1,8.927949679E-1
1.748767832E0,-5.647500157E-1,-4.938200116E-1,-2.408089936E-1,7.879021231E-1
1.753778603E0,-4.542120099E-1,-3.621079922E-1,-3.029890060E-1,6.551588248E-1
1.758789457E0,-3.069149852E-1,-2.212399989E-1,-3.521769941E-1,5.168873963E-1
1.763800457E0,-1.471240073E-1,-9.612900019E-2,-3.602600098E-1,4.008410319E-1
1.768811228E0,6.254999898E-3,2.613499947E-2,-3.275600076E-1,3.286604962E-1
1.773821998E0,1.561100036E-1,1.631110013E-1,-2.399329990E-1,3.294592175E-1
1.778832842E0,2.753799856E-1,2.686170042E-1,-1.025289968E-1,3.981223764E-1
1.783843632E0,3.469009995E-1,3.673369884E-1,6.313800067E-2,5.091789211E-1
1.788854630E0,4.262750149E-1,4.562720060E-1,1.808300018E-1,6.500723201E-1
1.793865410E0,5.115000010E-1,5.168880224E-1,2.862710059E-1,7.815091602E-1
1.798876254E0,5.450699925E-1,5.093150139E-1,3.005169928E-1,8.042471903E-1
1.803887026E0,4.914799929E-1,3.971430063E-1,2.327830046E-1,6.733966722E-1
1.808897785E0,3.742060065E-1,2.339269966E-1,1.188480034E-1,4.570304399E-1
1.813908783E0,2.065310031E-1,3.715199977E-2,-2.466199920E-2,2.112901809E-1
1.818919549E0,1.983300038E-2,-1.388649940E-1,-1.950470060E-1,2.402502217E-1
1.823930393E0,-1.352999955E-1,-2.594819963E-1,-3.250859976E-1,4.373990181E-1
1.828941165E0,-2.748149931E-1,-2.858949900E-1,-3.640049994E-1,5.382925462E-1
1.833952177E0,-3.653709888E-1,-2.807079852E-1,-3.143880069E-1,5.577927494E-1
1.838962948E0,-3.880670071E-1,-2.331950068E-1,-2.287759930E-1,5.072616368E-1
1.843973787E0,-3.683469892E-1,-1.491300017E-1,-1.141960025E-1,4.134730811E-1
1.848984558E0,-3.189100027E-1,-8.792799711E-2,2.756000031E-3,3.308209758E-1
1.853995556E0,-2.727360129E-1,-4.938900098E-2,9.096500278E-2,2.917170511E-1
1.859006338E0,-2.249639928E-1,-2.618999965E-2,1.790969968E-1,2.887394126E-1
1.864017182E0,-1.755760014E-1,1.943599992E-2,2.721349895E-1,3.244412780E-1
1.869027948E0,-1.083789989E-1,4.287000000E-2,4.055809975E-1,4.219950116E-1
1.874038717E0,-3.526699916E-2,8.416099846E-2,5.509769917E-1,5.584823007E-1
1.879049720E0,4.199099913E-2,1.188940033E-1,6.487839818E-1,6.609233564E-1
1.884060491E0,1.191309988E-1,1.909089983E-1,6.757709980E-1,7.122533835E-1
1.889071336E0,1.919910014E-1,2.567909956E-1,6.560969949E-1,7.302502494E-1
1.894082093E0,2.518129945E-1,3.092019856E-1,5.708069801E-1,6.963018459E-1
1.899092862E0,2.875880003E-1,3.341580033E-1,4.199000001E-1,6.088385986E-1
1.904103860E0,3.257839978E-1,3.184289932E-1,2.628070116E-1,5.259275257E-1
1.909114664E0,3.572880030E-1,2.979759872E-1,6.128399819E-2,4.692548715E-1
1.914125508E0,3.499369919E-1,2.545399964E-1,-1.752620041E-1,4.668653748E-1
1.919136290E0,2.980810106E-1,2.051919997E-1,-4.419910014E-1,5.712373332E-1
1.924147288E0,2.467390001E-1,1.535180062E-1,-6.604620218E-1,7.215663481E-1
1.929158044E0,1.793030053E-1,9.382300079E-2,-8.025400043E-1,8.276610306E-1
1.934168813E0,1.238979995E-1,3.384000063E-2,-9.235730171E-1,9.324607112E-1
1.939179672E0,7.520099729E-2,-3.266299888E-2,-1.000087976E0,1.003443084E0
1.944190444E0,1.871700026E-2,-8.602800220E-2,-1.010792971E0,1.014619915E0
1.949201442E0,-3.173900023E-2,-1.328269988E-1,-9.631850123E-1,9.728184536E-1
1.954212213E0,-1.022209972E-1,-1.840530038E-1,-8.432760239E-1,8.691599927E-1
1.959223057E0,-1.531150043E-1,-2.344229966E-1,-6.346399784E-1,6.936614795E-1
1.964234057E0,-1.895750016E-1,-2.727139890E-1,-4.040170014E-1,5.230117957E-1
1.969244823E0,-2.306639999E-1,-2.926140130E-1,-1.390700042E-1,3.977050509E-1
1.974255593E0,-2.479950041E-1,-3.117699921E-1,1.054989994E-1,4.121068901E-1
1.979266352E0,-2.094929963E-1,-2.961609960E-1,3.326739967E-1,4.922099543E-1
1.984277196E0,-9.761899710E-2,-2.361689955E-1,4.953379929E-1,5.573732952E-1
1.989287967E0,5.585600063E-2,-1.198849976E-1,5.871829987E-1,6.018938273E-1
1.994298970E0,2.010720074E-1,3.837999888E-3,5.918849707E-1,6.251179896E-1
1.999309741E0,3.058750033E-1,1.465169936E-1,5.935140252E-1,6.835829468E-1
2.004320586E0,3.994930089E-1,2.537530065E-1,5.392400026E-1,7.174712767E-1
2.009331368E0,4.589860141E-1,3.196089864E-1,4.693740010E-1,7.301575297E-1
2.014342366E0,4.621210098E-1,3.431510031E-1,4.026809931E-1,7.024673806E-1
2.019353137E0,4.384720027E-1,3.559300005E-1,3.295010030E-1,6.538461390E-1
2.024363995E0,3.933619857E-1,3.657050133E-1,2.831589878E-1,6.071678688E-1
2.029374767E0,3.109880090E-1,3.518300056E-1,2.442529947E-1,5.292989892E-1
2.034385750E0,1.805970073E-1,3.056200147E-1,2.077620029E-1,4.113197324E-1
2.039396521E0,4.299800098E-2,2.417660058E-1,1.615999937E-1,2.939629017E-1
2.044407290E0,-9.712000191E-2,1.655800045E-1,1.462260038E-1,2.413111618E-1
2.049418134E0,-2.233880013E-1,4.216700047E-2,1.037919968E-1,2.499060497E-1
2.054429120E0,-3.388499916E-1,-6.420599669E-2,8.462700248E-2,3.551104847E-1
2.059439891E0,-4.231820107E-1,-1.727450043E-1,5.753999949E-2,4.606893771E-1
2.064450661E0,-4.913899899E-1,-2.510260046E-1,1.811300032E-2,5.520926171E-1
2.069461505E0,-5.044839978E-1,-3.300600052E-1,-7.542999927E-3,6.029101160E-1
2.074472276E0,-4.990170002E-1,-3.659180105E-1,-5.000799894E-2,6.208178129E-1
2.079483031E0,-4.637379944E-1,-3.667269945E-1,-1.161810011E-1,6.025277097E-1
2.084494029E0,-4.162929952E-1,-3.189670146E-1,-1.220979989E-1,5.384679522E-1
2.089504801E0,-3.502120078E-1,-2.446459979E-1,-1.059639975E-1,4.401459797E-1
2.094515560E0,-2.660279870E-1,-1.560560018E-1,-7.969199866E-2,3.185516916E-1
2.099526404E0,-2.034460008E-1,-9.541100264E-2,-5.068700016E-2,2.303534386E-1
2.104537170E0,-1.545320004E-1,-6.207799911E-2,-3.825100139E-2,1.708711685E-1
2.109548168E0,-1.233479977E-1,-6.241099909E-2,-4.979699850E-2,1.469340069E-1
2.114558921E0,-6.287399679E-2,-4.702199996E-2,-1.018399969E-1,1.285907964E-1
2.119569765E0,3.285999969E-2,-2.302600071E-2,-1.323339939E-1,1.382832681E-1
2.124580540E0,1.068800017E-1,7.999999798E-4,-1.032439992E-1,1.486045024E-1
2.129591538E0,1.577440053E-1,2.223899961E-2,-6.237599999E-2,1.710804188E-1
2.134602295E0,2.072609961E-1,6.445500255E-2,-4.290400073E-2,2.212517144E-1
2.139613139E0,2.648630142E-1,1.036870033E-1,-1.140400022E-2,2.846637704E-1
2.144623911E0,2.861509919E-1,1.424690038E-1,3.219899908E-2,3.212733770E-1
2.149634680E0,2.840430140E-1,1.714020073E-1,5.683900043E-2,3.365854333E-1
2.154645678E0,2.523539960E-1,1.458310038E-1,2.402699925E-2,2.924491711E-1
2.159656444E0,1.966640055E-1,1.160039976E-1,-2.786600031E-2,2.300221131E-1
2.164667288E0,1.433939934E-1,5.826799944E-2,-1.228720024E-1,1.976221801E-1
2.169678069E0,5.505400151E-2,1.670000027E-3,-2.083880007E-1,2.155441737E-1
2.174688839E0,-3.510000184E-2,-3.443299979E-2,-2.414540052E-1,2.464095742E-1
2.179699837E0,-1.086089984E-1,-7.816100121E-2,-2.343380004E-1,2.698506162E-1
2.184710680E0,-1.732210070E-1,-9.648200125E-2,-1.917040050E-1,2.757983310E-1
2.189721449E0,-1.921959966E-1,-1.041150019E-1,-1.470849961E-1,2.634639080E-1
2.194732207E0,-1.788520068E-1,-1.130589992E-1,-8.147399873E-2,2.267341838E-1
2.199743205E0,-1.064789966E-1,-7.875899971E-2,2.439099923E-2,1.346687699E-1
2.204754050E0,-2.790799923E-2,-2.332700044E-2,1.563500017E-1,1.605251644E-1
2.209764819E0,5.683600157E-2,5.729300156E-2,3.027170002E-1,3.132896445E-1
2.214775597E0,1.638769954E-1,1.531309932E-1,4.635759890E-1,5.149829787E-1
2.219786595E0,2.604959905E-1,2.451860011E-1,6.509360075E-1,7.427597337E-1
2.224797357E0,3.429949880E-1,3.237600029E-1,7.955790162E-1,9.248848968E-1
2.229808127E0,3.586089909E-1,3.628169894E-1,8.928700089E-1,1.028325546E0
2.234818990E0,3.350780010E-1,3.369300067E-1,9.702399969E-1,1.080353992E0
2.239829990E0,2.259539962E-1,2.686969936E-1,1.010025978E0,1.069301529E0
2.244840756E0,8.800700307E-2,1.347939968E-1,9.975919724E-1,1.010497104E0
2.249851525E0,-3.636400029E-2,-1.758700050E-2,8.991929889E-1,9.000998135E-1
2.254862369E0,-1.589110047E-1,-1.752759963E-1,6.578850150E-1,6.991330884E-1
2.259873146E0,-2.799090147E-1,-3.033710122E-1,3.529860079E-1,5.431225915E-1
2.264883915E0,-3.861010075E-1,-3.625459969E-1,7.583999634E-2,5.350376556E-1
2.269894913E0,-4.716809988E-1,-3.700850010E-1,-1.471650004E-1,6.173357352E-1
2.274905698E0,-4.960809946E-1,-3.143410087E-1,-2.515690029E-1,6.389002944E-1
2.279916542E0,-4.773739874E-1,-1.912630051E-1,-2.922619879E-1,5.915103808E-1
2.284927319E0,-4.322839975E-1,-7.209800184E-2,-3.244670033E-1,5.452947943E-1
2.289938317E0,-3.654370010E-1,6.124000065E-3,-3.965019882E-1,5.392546075E-1
2.294949093E0,-3.139770031E-1,5.172500014E-2,-4.943110049E-1,5.878778816E-1
2.299959862E0,-2.331209928E-1,6.615100056E-2,-5.970039964E-1,6.443098042E-1
2.304970701E0,-1.403210014E-1,8.645500243E-2,-6.237779856E-1,6.451848000E-1
2.309981472E0,-3.330900148E-2,1.179070026E-1,-6.155329943E-1,6.276084909E-1
2.314992470E0,9.233400226E-2,1.698590070E-1,-5.889840126E-1,6.199030709E-1
2.320003251E0,2.570179999E-1,2.345689982E-1,-5.751410127E-1,6.722113147E-1
2.325014020E0,4.272879958E-1,3.098700047E-1,-5.262299776E-1,7.453270695E-1
2.330024869E0,5.983880162E-1,3.791809976E-1,-4.566650093E-1,8.428459987E-1
2.335035640E0,7.195420265E-1,4.235189855E-1,-4.237180054E-1,9.362937611E-1
2.340046638E0,7.782099843E-1,4.459429979E-1,-3.652519882E-1,9.684446045E-1
2.345057415E0,7.690640092E-1,4.120369852E-1,-2.817029953E-1,9.168372292E-1
2.350068259E0,6.845390201E-1,3.653169870E-1,-1.515340060E-1,7.905774636E-1
2.355079025E0,5.406910181E-1,3.008820117E-1,-2.958199941E-2,6.194770833E-1
2.360090023E0,3.806050122E-1,1.857189983E-1,6.717299670E-2,4.287935787E-1
2.365100794E0,1.928119957E-1,1.081799995E-2,1.361539960E-1,2.362867018E-1
2.370111569E0,2.205700055E-2,-1.816319972E-1,1.226319969E-1,2.202618904E-1
2.375122413E0,-1.532720029E-1,-3.659420013E-1,6.996300071E-2,4.028655814E-1
2.380133199E0,-2.983660102E-1,-5.076249838E-1,-9.380999953E-3,5.888916737E-1
2.385144197E0,-4.422940016E-1,-6.126790047E-1,-1.244819984E-1,7.658298209E-1
2.390154968E0,-5.624870062E-1,-6.671130061E-1,-1.532700062E-1,8.859588534E-1
2.395165742E0,-6.277469993E-1,-6.530659795E-1,-1.241820008E-1,9.143208616E-1
2.400176587E0,-6.627950072E-1,-5.930250287E-1,-4.889199883E-2,8.907111394E-1
2.405187343E0,-6.312789917E-1,-5.093299747E-1,2.243199944E-2,8.114390815E-1
2.410198341E0,-5.482640266E-1,-4.264659882E-1,2.769199945E-2,6.951500045E-1
2.415209112E0,-4.009320140E-1,-3.402619958E-1,4.239999980E-4,5.258563353E-1
2.420219971E0,-2.211419940E-1,-2.392340004E-1,-6.167799979E-2,3.315733164E-1
2.425230742E0,-3.760100156E-2,-1.373039931E-1,-1.205120012E-1,1.865190722E-1
2.430241740E0,1.426260024E-1,-1.294299960E-2,-1.592999995E-1,2.142106151E-1
2.435252497E0,3.200280070E-1,1.034799963E-1,-1.734739989E-1,3.784432100E-1
2.440263341E0,4.416790009E-1,2.149329931E-1,-1.964890063E-1,5.290410767E-1
2.445274122E0,4.979380071E-1,2.941100001E-1,-2.047040015E-1,6.134710094E-1
2.450284891E0,4.886919856E-1,3.346810043E-1,-2.508470118E-1,6.432382566E-1
2.455295642E0,4.089159966E-1,3.125680089E-1,-2.734020054E-1,5.828033193E-1
2.460306640E0,2.931289971E-1,2.389950007E-1,-2.681809962E-1,4.636423902E-1
2.465317406E0,1.840630025E-1,1.501239985E-1,-2.664670050E-1,3.569608782E-1
2.470328250E0,6.965000182E-2,5.600899830E-2,-2.325879931E-1,2.491692300E-1
2.475339016E0,-4.995299876E-2,-6.203699857E-2,-2.026109993E-1,2.177041762E-1
2.480350014E0,-1.424839944E-1,-1.657570004E-1,-1.120409966E-1,2.456221829E-1
2.485360786E0,-1.996610016E-1,-2.534239888E-1,-3.793000011E-3,3.226493770E-1
2.490371541E0,-2.388429940E-1,-3.237369955E-1,9.860700369E-2,4.142160779E-1
2.495382385E0,-2.559840083E-1,-3.805989921E-1,1.382859945E-1,4.790682849E-1
2.500393165E0,-2.470470071E-1,-4.248889983E-1,1.514209956E-1,5.142870818E-1
2.505404163E0,-2.222979963E-1,-4.347139895E-1,1.052559987E-1,4.994711974E-1
2.510414934E0,-1.847459972E-1,-3.977060020E-1,-6.672000047E-3,4.385723009E-1
2.515425779E0,-1.469829977E-1,-3.032259941E-1,-9.060099721E-2,3.489391721E-1
2.520436550E0,-1.210400015E-1,-1.805830002E-1,-1.463229954E-1,2.620521340E-1
2.525447319E0,-8.811800182E-2,-5.825199932E-2,-1.883379966E-1,2.159381361E-1
2.530458317E0,-3.461199999E-2,5.258600041E-2,-1.931200027E-1,2.031221638E-1
2.535469069E0,2.967699990E-2,1.668370068E-1,-1.656910032E-1,2.369996196E-1
2.540479914E0,1.235309988E-1,2.664259970E-1,-1.088979989E-1,3.132115798E-1
2.545490685E0,2.234060019E-1,3.452349901E-1,-2.789199911E-2,4.121594397E-1
2.550501449E0,2.972669899E-1,3.896439970E-1,5.429000128E-3,4.901220070E-1
2.555512447E0,3.300060034E-1,3.962019980E-1,4.335999861E-2,5.174553845E-1
2.560523267E0,3.417490125E-1,3.822579980E-1,6.901100278E-2,5.173742196E-1
2.565534036E0,3.218930066E-1,3.600069880E-1,7.764499635E-2,4.891307438E-1
2.570544796E0,2.809279859E-1,3.505840003E-1,5.993799865E-2,4.532353012E-1
2.575555794E0,2.148559988E-1,3.350819945E-1,2.304499969E-2,3.987155819E-1
2.580566565E0,1.523279995E-1,3.183290064E-1,-2.110500075E-2,3.535287779E-1
2.585577414E0,1.187869981E-1,2.821039855E-1,-4.907200113E-2,3.100017272E-1
2.590588185E0,5.297299847E-2,1.870640069E-1,-9.003499895E-2,2.142554137E-1
2.595599183E0,2.296099998E-2,7.871399820E-2,-1.489419937E-1,1.700200533E-1
2.600609969E0,-4.896000028E-3,-3.819999844E-2,-2.281779945E-1,2.314052892E-1
2.605620813E0,-4.057199880E-2,-1.400970072E-1,-2.845639884E-1,3.197654172E-1
2.610631570E0,-9.818399698E-2,-2.392850071E-1,-3.490239978E-1,4.344135851E-1
2.615642339E0,-9.914699942E-2,-2.820329964E-1,-3.590959907E-1,4.672501140E-1
2.620653107E0,-7.815799862E-2,-2.675150037E-1,-3.334060013E-1,4.345486298E-1
2.625663877E0,-5.950700119E-2,-2.254219949E-1,-3.050990105E-1,3.839812042E-1
2.630674875E0,-7.579100132E-2,-1.614470035E-1,-2.784889936E-1,3.307045969E-1
2.635685632E0,-7.293000072E-2,-9.465999901E-2,-2.130469978E-1,2.442710046E-1
2.640696476E0,-5.626500025E-2,-5.284800008E-2,-1.211879998E-1,1.436843508E-1
2.645707257E0,-3.307899833E-2,1.990000019E-3,-1.955799945E-2,3.847980734E-2
2.650718255E0,1.058700029E-2,3.727100044E-2,1.249200031E-1,1.307907460E-1
2.655729041E0,6.994900107E-2,5.362299830E-2,2.904610038E-1,3.035389323E-1
2.660739810E0,1.450790018E-1,6.781499833E-2,4.507569969E-1,4.783603882E-1
2.665750644E0,1.967329979E-1,7.050599903E-2,6.034899950E-1,6.386510334E-1
2.670761415E0,2.216030061E-1,5.235499889E-2,7.128430009E-1,7.483275233E-1
2.675772433E0,2.022179961E-1,1.584099978E-2,7.933229804E-1,8.188433345E-1
2.680783205E0,1.448390037E-1,1.340999966E-3,8.930580020E-1,9.047279869E-1
2.685794034E0,1.160480008E-1,5.807999987E-3,9.859399796E-1,9.927630707E-1
2.690804805E0,1.274109930E-1,2.330400050E-2,9.838550091E-1,9.923443538E-1
2.695815579E0,1.733070016E-1,3.197700158E-2,9.155499935E-1,9.323570325E-1
2.700826577E0,2.110300064E-1,7.880000398E-3,7.379980087E-1,7.676176254E-1
2.705837319E0,1.965609938E-1,-4.616000131E-2,4.846639931E-1,5.250391949E-1
2.710848164E0,1.450300068E-1,-6.902199984E-2,1.895750016E-1,2.484681480E-1
2.715858959E0,6.872999668E-2,-1.030260026E-1,-1.044680029E-1,1.620238664E-1
2.720869957E0,-3.877200186E-2,-1.334500015E-1,-3.783839941E-1,4.030962888E-1
2.725880728E0,-1.653530002E-1,-1.665969938E-1,-6.133549809E-1,6.567347301E-1
2.730891567E0,-2.878940105E-1,-2.154780030E-1,-7.884569764E-1,8.665899461E-1
2.735902339E0,-3.864879906E-1,-2.226459980E-1,-8.751400113E-1,9.822495847E-1
2.740913337E0,-4.417920113E-1,-1.884700060E-1,-8.782690167E-1,1.001028266E0
2.745924132E0,-4.649339914E-1,-1.620579958E-1,-7.841330171E-1,9.259001020E-1
2.750934901E0,-4.501079917E-1,-1.453759968E-1,-6.337640285E-1,7.908149142E-1
2.755945745E0,-3.891189992E-1,-1.339289993E-1,-4.726809859E-1,6.267199429E-1
2.760956734E0,-3.132640123E-1,-1.373970062E-1,-3.128440082E-1,4.635554467E-1
2.765967505E0,-2.087150067E-1,-1.466390043E-1,-1.685059965E-1,3.057110114E-1
2.770978276E0,-1.130549982E-1,-1.595129967E-1,-2.991399914E-2,1.977894741E-1
2.775989045E0,-4.956000019E-3,-1.738419980E-1,1.053939983E-1,2.033555927E-1
2.780999889E0,1.227279976E-1,-1.338900030E-1,2.357240021E-1,2.975810805E-1
2.786010635E0,2.188220024E-1,-9.752800316E-2,3.183670044E-1,3.984373597E-1
2.791021633E0,2.869470119E-1,-4.411400110E-2,3.442629874E-1,4.503350278E-1
2.796032415E0,3.257960081E-1,3.550599888E-2,3.663539886E-1,4.915475154E-1
2.801043259E0,3.084850013E-1,8.946599811E-2,3.845309913E-1,5.010301829E-1
2.806054016E0,2.785840034E-1,1.557009965E-1,3.846279979E-1,4.997905002E-1
2.811064785E0,2.621049881E-1,2.149299979E-1,3.547010124E-1,4.906187287E-1
2.816075783E0,2.495439947E-1,2.580190003E-1,2.897849977E-1,4.613256493E-1
2.821086564E0,2.362450063E-1,2.733930051E-1,1.801709980E-1,4.037536709E-1
2.826097333E0,1.758220047E-1,2.409079969E-1,4.697699845E-2,3.019219745E-1
2.831108182E0,1.021270007E-1,1.691700071E-1,-8.403000236E-2,2.147311269E-1
2.836118953E0,1.093399990E-2,6.639599800E-2,-2.156150043E-1,2.258712266E-1
2.841129722E0,-8.371900022E-2,-4.045499861E-2,-3.169659972E-1,3.303224505E-1
2.846140720E0,-1.682150066E-1,-1.298539937E-1,-3.761909902E-1,4.320625062E-1
2.851151487E0,-2.386309952E-1,-1.998549998E-1,-4.099389911E-1,5.147200688E-1
2.856162331E0,-2.820160091E-1,-2.485059947E-1,-4.062100053E-1,5.534390907E-1
2.861173097E0,-2.994790077E-1,-2.559219897E-1,-3.979429901E-1,5.599485371E-1
2.866183866E0,-2.993060052E-1,-2.443040013E-1,-3.634589911E-1,5.304441234E-1
2.871194864E0,-2.731649876E-1,-2.048780024E-1,-2.977960110E-1,4.530745749E-1
2.876205732E0,-2.380090058E-1,-1.619440019E-1,-2.271569967E-1,3.667075780E-1
2.881216502E0,-1.570360065E-1,-1.246920004E-1,-1.207759976E-1,2.340838395E-1
2.886227256E0,-6.600499898E-2,-8.161900192E-2,-2.870200016E-2,1.088215336E-1
2.891238254E0,1.896799915E-2,-4.892300069E-2,6.566300243E-2,8.405281005E-2
2.896249025E0,8.918900043E-2,-5.657000002E-3,1.363500059E-1,1.630276159E-1
2.901259893E0,1.594000012E-1,2.712799981E-2,2.023549974E-1,2.590209137E-1
2.906270665E0,2.137369961E-1,5.474499986E-2,2.851080000E-1,3.605094869E-1
2.911281425E0,2.531250119E-1,9.594000131E-2,3.418110013E-1,4.360177934E-1
2.916292423E0,2.852410078E-1,1.368030012E-1,4.225870073E-1,5.278799791E-1
2.921303194E0,2.921249866E-1,1.680620015E-1,5.035160184E-1,6.058962163E-1
2.926314038E0,2.957670093E-1,1.874540001E-1,5.510879755E-1,6.529280838E-1
2.931324814E0,2.849799991E-1,1.781149954E-1,5.199620128E-1,6.191114974E-1
2.936335583E0,2.649280131E-1,1.264870018E-1,4.337730110E-1,5.237793799E-1
2.941346581E0,2.033260018E-1,4.266000167E-2,3.139689863E-1,3.764808934E-1
2.946357352E0,1.174380034E-1,-6.555800140E-2,1.627379954E-1,2.111236399E-1
2.951368196E0,3.770000115E-2,-1.997330040E-1,2.035200037E-2,2.042762024E-1
2.956378967E0,-3.860399872E-2,-2.660360038E-1,-1.387609988E-1,3.025227906E-1
2.961389718E0,-1.052530035E-1,-2.916010022E-1,-2.593280077E-1,4.041786175E-1
2.966400793E0,-1.631119996E-1,-2.842319906E-1,-3.483549953E-1,4.782724659E-1
2.971411511E0,-2.247920036E-1,-2.327779979E-1,-3.864369988E-1,5.040343195E-1
2.976422355E0,-2.280829996E-1,-1.571169943E-1,-3.879039884E-1,4.766309985E-1
2.981433112E0,-2.145310044E-1,-5.112100020E-2,-3.883270025E-1,4.465812014E-1
2.986443882E0,-1.592109948E-1,3.544799984E-2,-3.665400147E-1,4.011935742E-1
2.991454880E0,-6.577099860E-2,1.171210036E-1,-3.323369920E-1,3.584564548E-1
2.996465675E0,2.285899967E-2,1.778959930E-1,-2.883970141E-1,3.396209004E-1
3.001476519E0,1.002459973E-1,2.046979964E-1,-2.279769927E-1,3.223725157E-1
3.006487290E0,1.646080017E-1,2.409349978E-1,-1.367750019E-1,3.222621115E-1
3.011497982E0,1.957529932E-1,2.495899945E-1,-1.276000030E-2,3.174542760E-1
3.016508981E0,1.859869957E-1,2.292030007E-1,1.032190025E-1,3.126968829E-1
3.021519752E0,1.670009941E-1,2.088499963E-1,2.469680011E-1,3.640066573E-1
3.026530596E0,1.652060002E-1,2.121039927E-1,4.210309982E-1,4.995480234E-1
3.031541352E0,1.737570018E-1,2.053920031E-1,5.824000239E-1,6.415350017E-1
3.036552350E0,1.929260045E-1,1.837490052E-1,7.120320201E-1,7.602458404E-1
3.041563121E0,1.855140030E-1,1.398140043E-1,7.981539965E-1,8.312720392E-1
3.046573910E0,1.712899953E-1,8.693800122E-2,7.814199924E-1,8.046835919E-1
3.051584754E0,1.435640007E-1,3.574800119E-2,6.456819773E-1,6.624150947E-1
3.056595525E0,1.047229990E-1,-3.298100084E-2,4.555769861E-1,4.686203615E-1
3.061606538E0,2.699399926E-2,-1.120539978E-1,2.279510051E-1,2.554338176E-1
3.066617309E0,-8.180099726E-2,-1.546490043E-1,-2.233600058E-2,1.763706739E-1
3.071628074E0,-1.955869943E-1,-1.690790057E-1,-3.067910075E-1,4.012015763E-1
3.076638918E0,-3.079099953E-1,-1.671880037E-1,-5.561220050E-1,6.572914713E-1
3.081649689E0,-3.733479977E-1,-1.324100047E-1,-7.393929958E-1,8.388224717E-1
3.086660677E0,-3.895399868E-1,-6.930900365E-2,-8.402060270E-1,9.287041010E-1
3.091671448E0,-3.584319949E-1,1.353999949E-3,-8.591099977E-1,9.308841585E-1
3.096682217E0,-2.909699976E-1,4.736300185E-2,-8.470649719E-1,8.968979095E-1
3.101693062E0,-2.001120001E-1,1.026950032E-1,-7.613360286E-1,7.938662511E-1
3.106703833E0,-8.871400356E-2,1.494610012E-1,-6.073070168E-1,6.316886717E-1
3.111714841E0,1.996199973E-2,1.740079969E-1,-4.330630004E-1,4.671411208E-1
3.116725612E0,1.035989970E-1,1.789940000E-1,-2.839919925E-1,3.513161767E-1
3.121736456E0,1.565030068E-1,1.673409939E-1,-1.290339977E-1,2.629562167E-1
3.126747232E0,2.055570036E-1,1.531929970E-1,1.043299958E-2,2.565747913E-1
3.131758001E0,2.280810028E-1,1.085100025E-1,1.342650056E-1,2.860462484E-1
3.136768999E0,2.044470012E-1,2.680400014E-2,2.352129966E-1,3.127973537E-1
3.141779766E0,1.478680074E-1,-6.821899861E-2,2.943640053E-1,3.364059260E-1
3.146790610E0,8.016499877E-2,-1.274649948E-1,3.289990127E-1,3.618205388E-1
3.151801396E0,1.548799966E-2,-1.453669965E-1,3.302040100E-1,3.611178894E-1
3.156812394E0,-3.248099983E-2,-1.371850073E-1,3.222160041E-1,3.517071152E-1
3.161823257E0,-8.058100194E-2,-1.245130002E-1,3.265849948E-1,3.586844629E-1
3.166834026E0,-1.243230030E-1,-1.218139976E-1,3.074330091E-1,3.532844664E-1
3.171844709E0,-1.499090046E-1,-1.573179960E-1,2.477409989E-1,3.295409899E-1
3.176855553E0,-1.743450016E-1,-1.885329932E-1,1.596889943E-1,3.023928637E-1
3.181866344E0,-1.770710051E-1,-2.271949947E-1,7.896800339E-2,2.986765006E-1
3.186877342E0,-1.846909970E-1,-2.357790023E-1,8.245999925E-3,2.996172539E-1
3.191888103E0,-1.693599969E-1,-2.010660022E-1,-5.210199952E-2,2.680017988E-1
3.196898947E0,-1.273420006E-1,-1.496410072E-1,-9.013900161E-2,2.161792214E-1
3.201909781E0,-5.491400138E-2,-4.901799932E-2,-9.839600325E-2,1.228824042E-1
3.206920551E0,1.236999966E-2,2.740599960E-2,-1.034810022E-1,1.077609554E-1
3.211931558E0,5.870399997E-2,8.931300044E-2,-1.483909935E-1,1.828738872E-1
3.216942329E0,7.560800016E-2,1.395619959E-1,-1.996850073E-1,2.550847360E-1
3.221953178E0,8.248200268E-2,1.460359991E-1,-2.483319938E-1,2.996641002E-1
3.226963949E0,7.495699823E-2,1.453469992E-1,-2.634750009E-1,3.101022055E-1
3.231974718E0,3.494400159E-2,1.262860000E-1,-2.644529939E-1,2.951349234E-1
3.236985701E0,5.156000145E-3,1.130269989E-1,-2.442360073E-1,2.691707898E-1
3.241996473E0,-3.546899930E-2,8.009599894E-2,-2.103089988E-1,2.278229443E-1
3.247007317E0,-6.794799864E-2,5.851199850E-2,-1.506949961E-1,1.753555427E-1
3.252018074E0,-6.931699812E-2,3.418299928E-2,-7.759299874E-2,1.095171088E-1
3.257029072E0,-6.355399638E-2,3.512100130E-2,-5.067000166E-3,7.278921403E-2
3.262039829E0,-4.142199829E-2,2.324200049E-2,6.914799660E-2,8.388931972E-2
3.267050599E0,-1.245199982E-2,-2.280700020E-2,8.994200081E-2,9.362037741E-2
3.272061443E0,1.163200010E-2,-7.431600243E-2,1.028129980E-1,1.273918530E-1
3.277072223E0,3.121200018E-2,-1.268599927E-1,8.403400332E-2,1.553362817E-1
3.282083221E0,4.386299849E-2,-1.619810015E-1,3.868100047E-2,1.722150611E-1
3.287093987E0,2.410000004E-2,-1.501100063E-1,-1.095400006E-2,1.524264220E-1
3.292104831E0,1.198200043E-2,-7.144299895E-2,-5.464399979E-2,9.073939136E-2
3.297115603E0,9.201999754E-3,1.159800030E-2,-8.042100072E-2,8.177241446E-2
3.302126372E0,1.319000032E-2,1.055940017E-1,-1.239460036E-1,1.633605862E-1
3.307137380E0,3.734700009E-2,1.916179955E-1,-1.614940017E-1,2.533625213E-1
3.312148151E0,6.482599676E-2,2.629320025E-1,-1.908610016E-1,3.313058553E-1
3.317158915E0,9.101100266E-2,3.012560010E-1,-2.363169938E-1,3.935529219E-1
3.322169760E0,9.730800241E-2,3.075180054E-1,-2.766480148E-1,4.249356364E-1
3.327180536E0,7.035399973E-2,2.806360126E-1,-3.075079918E-1,4.222172685E-1
3.332191534E0,3.909000009E-2,2.454880029E-1,-2.886039913E-1,3.808997919E-1
3.337202305E0,1.266999985E-3,1.980029941E-1,-2.417709976E-1,3.125060099E-1
3.342213069E0,-5.683499947E-2,1.644140035E-1,-1.764750034E-1,2.478015507E-1
3.347223913E0,-9.745199978E-2,1.213589981E-1,-6.431599706E-2,1.684085692E-1
3.352234685E0,-6.746000051E-2,6.637100130E-2,3.228799999E-2,9.999238184E-2
3.357245683E0,-1.041399967E-2,1.793500036E-2,9.681600332E-2,9.901239380E-2
3.362256454E0,6.166300178E-2,-4.557700083E-2,1.292989999E-1,1.503257136E-1
3.367267223E0,1.135879979E-1,-7.725100219E-2,1.326300055E-1,1.909467699E-1
3.372278062E0,1.321160048E-1,-9.924200177E-2,1.024290025E-1,1.944101700E-1
3.377288834E0,1.087990031E-1,-1.091450006E-1,9.146499634E-2,1.792085371E-1
3.382299603E0,8.884199709E-2,-1.004009992E-1,6.887000054E-2,1.507194017E-1
3.387310611E0,6.046099961E-2,-8.738599718E-2,4.424099997E-2,1.151047829E-1
3.392321382E0,5.157700181E-2,-8.628500253E-2,4.595499858E-2,1.105312203E-1
3.397332226E0,3.400599957E-2,-9.495700151E-2,3.000000106E-6,1.008624814E-1
3.402343230E0,4.049900174E-2,-1.084450036E-1,-4.831299931E-2,1.254377689E-1
3.407354002E0,5.851300061E-2,-1.288489997E-1,-8.483099937E-2,1.649913162E-1
3.412364747E0,1.063250005E-1,-1.586360037E-1,-1.622609943E-1,2.505973218E-1
3.417375516E0,1.524129957E-1,-1.505559981E-1,-2.086029947E-1,2.990184596E-1
3.422386360E0,1.803410053E-1,-1.378699988E-1,-2.310969979E-1,3.239395579E-1
3.427397131E0,1.930450052E-1,-1.202140003E-1,-2.178730071E-1,3.149387673E-1
3.432408129E0,1.910070032E-1,-1.138319969E-1,-1.834540069E-1,2.882651062E-1
3.437418896E0,1.512310058E-1,-9.238199890E-2,-1.014140025E-1,2.041814162E-1
3.442429665E0,1.073080003E-1,-6.548500061E-2,1.950999955E-3,1.257262846E-1
3.447440509E0,4.083399847E-2,-4.522600025E-2,1.124209985E-1,1.278721527E-1
3.452451519E0,1.291000051E-3,-2.247799933E-2,2.133489996E-1,2.145337334E-1
3.457462290E0,-1.887499914E-2,-2.112499997E-2,2.974959910E-1,2.988417572E-1
3.462473065E0,-1.525800023E-2,-3.638999909E-2,3.600369990E-1,3.621928758E-1
3.467483909E0,-2.210000064E-3,-5.903099850E-2,3.628279865E-1,3.676053463E-1
3.472494680E0,8.615000173E-3,-8.695100248E-2,3.179950118E-1,3.297810222E-1
3.477505692E0,1.272999961E-2,-1.081010029E-1,2.638199925E-1,2.853924809E-1
3.482516463E0,5.830999929E-3,-1.340399981E-1,2.073599994E-1,2.469795356E-1
3.487527232E0,-7.218999788E-3,-1.433320045E-1,1.558430046E-1,2.118566014E-1
3.492538053E0,-1.678499952E-2,-1.407839954E-1,1.116790026E-1,1.804828779E-1
3.497548824E0,4.863000009E-3,-1.242989972E-1,7.249400020E-2,1.439766285E-1
3.502559808E0,1.267500035E-2,-9.889599681E-2,2.167999931E-2,1.020347793E-1
3.507570579E0,3.465300053E-2,-7.626499981E-2,-1.463400014E-2,8.503725420E-2
3.512581348E0,5.189400166E-2,-5.385399982E-2,-3.888300061E-2,8.429192394E-2
3.517592193E0,6.221200153E-2,-2.224100009E-2,-5.576800182E-2,8.645845966E-2
3.522602959E0,4.265199974E-2,-2.147700079E-2,-7.741399854E-2,9.095813221E-2
3.527613728E0,5.549999885E-3,-6.498499960E-2,-1.065739989E-1,1.249474686E-1
3.532624726E0,-4.408400133E-2,-1.263220012E-1,-1.624110043E-1,2.104233387E-1
3.537635492E0,-1.062289998E-1,-1.906780005E-1,-1.709360033E-1,2.772396391E-1
3.542646336E0,-1.575859934E-1,-2.228769958E-1,-1.582259983E-1,3.155043060E-1
3.547657108E0,-1.987999976E-1,-2.306119949E-1,-1.025929973E-1,3.212921634E-1
3.552667872E0,-2.278400064E-1,-2.078890055E-1,-5.621799827E-2,3.135113562E-1
3.557678641E0,-2.194090039E-1,-1.699350029E-1,-3.799299896E-2,2.801101286E-1
3.562689639E0,-2.187770009E-1,-1.316120028E-1,-6.204799935E-2,2.627452181E-1
3.567700497E0,-2.189390063E-1,-8.797299862E-2,-7.104100287E-2,2.464150179E-1
3.572711267E0,-2.060769945E-1,-4.619399831E-2,-7.222100347E-2,2.231983120E-1
3.577722041E0,-1.734620035E-1,3.653999884E-3,-3.707600012E-2,1.774177222E-1
3.582733039E0,-1.514520049E-1,4.030599818E-2,-3.742299974E-2,1.611296502E-1
3.587743810E0,-1.071790010E-1,5.048900098E-2,-1.636499912E-2,1.196005463E-1
3.592754659E0,-5.029299855E-2,6.541600078E-2,6.899000145E-3,8.280238562E-2
3.597765431E0,4.140000092E-4,7.607799768E-2,4.413700104E-2,8.795514759E-2
3.602776195E0,7.785099745E-2,9.673400223E-2,9.292700142E-2,1.550924646E-1
3.607787193E0,1.559009999E-1,1.389880031E-1,1.462710053E-1,2.549862619E-1
3.612797964E0,2.324150056E-1,1.858859956E-1,1.947149932E-1,3.556462664E-1
3.617808747E0,2.612940073E-1,1.788139939E-1,2.355570048E-1,3.946341409E-1
3.622819591E0,3.023569882E-1,1.653109938E-1,2.282540053E-1,4.133368649E-1
3.627830363E0,2.717210054E-1,1.311170012E-1,1.897689998E-1,3.564214445E-1
3.632841361E0,2.294429988E-1,6.695500016E-2,1.128220037E-1,2.643026035E-1
3.637852132E0,1.663040072E-1,1.738299988E-2,-6.943999790E-3,1.673541473E-1
3.642862901E0,1.058389992E-1,-4.818199947E-2,-1.099790037E-1,1.600586769E-1
3.647873750E0,3.580500185E-2,-1.128000021E-1,-1.844229996E-1,2.191293714E-1
3.652884750E0,-3.014600091E-2,-1.457670033E-1,-2.110400051E-1,2.582531401E-1
3.657895522E0,-1.041319966E-1,-1.682990044E-1,-1.684409976E-1,2.598853541E-1
3.662906291E0,-1.466919929E-1,-1.546220034E-1,-5.892499909E-2,2.211304145E-1
3.667917135E0,-1.561360061E-1,-1.479479969E-1,4.808900133E-2,2.204078361E-1
3.672927906E0,-1.428280026E-1,-6.921599805E-2,1.534830034E-1,2.207888698E-1
3.677938918E0,-1.002189964E-1,2.556899935E-2,2.216939926E-1,2.446341091E-1
3.682949689E0,-2.668499947E-2,1.118249968E-1,2.265799940E-1,2.540775723E-1
3.687960440E0,2.817600034E-2,2.007099986E-1,1.613900065E-1,2.590851689E-1
3.692971284E0,5.313799903E-2,2.907370031E-1,1.359159946E-1,3.253072540E-1
3.697982074E0,9.128499776E-2,3.656710088E-1,9.491699934E-2,3.886611304E-1
3.702992843E0,1.075130031E-1,4.308429956E-1,4.545199871E-2,4.463749734E-1
3.708003618E0,1.305100024E-1,4.633199871E-1,-1.768100075E-2,4.816750865E-1
3.713014616E0,1.507450044E-1,4.599269927E-1,-4.970899969E-2,4.865468935E-1
3.718025387E0,1.729190052E-1,4.267979860E-1,-6.080799922E-2,4.644944736E-1
3.723036226E0,1.715140045E-1,3.817529976E-1,-3.461299837E-2,4.199410251E-1
3.728046997E0,1.425839961E-1,3.418709934E-1,2.402899973E-2,3.711918168E-1
3.733057767E0,1.171820015E-1,3.118300140E-1,1.007900015E-1,3.480347734E-1
3.738068775E0,6.974600255E-2,2.818099856E-1,1.719319969E-1,3.374047783E-1
3.743079546E0,5.698000081E-3,2.438279986E-1,1.756729931E-1,3.005753826E-1
3.748090390E0,-7.655800134E-2,1.505379975E-1,1.214559972E-1,2.080249397E-1
3.753101161E0,-1.418350041E-1,-5.940000061E-3,7.064999640E-2,1.585681998E-1
3.758112159E0,-1.998230070E-1,-1.826079935E-1,-3.414599970E-2,2.728385286E-1
3.763123007E0,-2.095919997E-1,-3.086160123E-1,-1.018460020E-1,3.867108190E-1
3.768133690E0,-1.778710037E-1,-3.729560077E-1,-9.158699960E-2,4.232286098E-1
3.773144534E0,-1.455460042E-1,-4.029429853E-1,-5.559900030E-2,4.320161311E-1
3.778155305E0,-1.152359992E-1,-3.852410018E-1,2.089799941E-2,4.026495888E-1
3.783166288E0,-7.981000096E-2,-3.494330049E-1,9.281200171E-2,3.702527904E-1
3.788177059E0,-5.558700114E-2,-3.150399923E-1,1.436109990E-1,3.506625593E-1
3.793187900E0,-1.190099958E-2,-2.800819874E-1,1.829849929E-1,3.347701615E-1
3.798198900E0,1.387200039E-2,-2.240650058E-1,1.708330065E-1,2.821018882E-1
3.803209680E0,4.101800174E-2,-1.898660064E-1,1.262309998E-1,2.316588918E-1
3.808220449E0,5.101000145E-2,-1.579840034E-1,7.303100079E-2,1.813683894E-1
3.813231218E0,7.242000103E-2,-1.724620014E-1,1.058700029E-2,1.873496279E-1
3.818242057E0,9.105200320E-2,-2.011370063E-1,-1.129699964E-2,2.210750660E-1
3.823252829E0,1.072679982E-1,-2.103759944E-1,1.880000054E-4,2.361451202E-1
3.828263827E0,1.167740002E-1,-2.075659931E-1,6.916000042E-3,2.382596056E-1
3.833274613E0,9.912200272E-2,-1.840710044E-1,-3.122800030E-2,2.113823410E-1
3.838285382E0,7.589799911E-2,-1.403709948E-1,-7.573399693E-2,1.766356723E-1
3.843296211E0,5.651099980E-2,-7.947500050E-2,-1.478739977E-1,1.771340961E-1
3.848306983E0,2.440599911E-2,-2.950399928E-2,-2.048130035E-1,2.083614772E-1
3.853317967E0,-1.545100007E-2,4.439999908E-2,-3.010810018E-1,3.047291633E-1
3.858328738E0,-2.851399966E-2,1.117559969E-1,-3.701300025E-1,3.876837239E-1
3.863339577E0,-3.700499982E-2,1.850129962E-1,-3.883399963E-1,4.317489219E-1
3.868350348E0,-3.170900047E-2,2.478799969E-1,-4.014259875E-1,4.728559791E-1
3.873361117E0,-1.306600031E-2,2.775709927E-1,-4.004029930E-1,4.873796602E-1
3.878372129E0,3.999999990E-6,2.957639992E-1,-3.996680081E-1,4.972030369E-1
3.883382901E0,-1.088699978E-2,2.611820102E-1,-3.808090091E-1,4.618983336E-1
3.888393741E0,-2.890999988E-2,1.848179996E-1,-3.253470063E-1,3.752920937E-1
3.893404435E0,-3.311000019E-2,1.097439975E-1,-2.573109865E-1,2.816894760E-1
3.898415279E0,-4.243100062E-2,1.975199953E-2,-1.553999931E-1,1.622950681E-1
3.903426060E0,-8.443400264E-2,-6.901200116E-2,-7.659400254E-2,1.332606406E-1
3.908436829E0,-1.303790063E-1,-1.776970029E-1,2.200300060E-2,2.214927587E-1
3.913447827E0,-1.640499979E-1,-2.502869964E-1,1.194479987E-1,3.222170181E-1
3.918458680E0,-2.021259964E-1,-2.742139995E-1,1.878769994E-1,3.890321360E-1
3.923469449E0,-2.189680040E-1,-2.930740118E-1,2.561500072E-1,4.466007046E-1
3.928480214E0,-2.314060032E-1,-2.655310035E-1,2.915529907E-1,4.572292625E-1
3.933491212E0,-1.999820024E-1,-2.165260017E-1,3.039369881E-1,4.233839905E-1
3.938501983E0,-1.258450001E-1,-1.654179990E-1,3.003999889E-1,3.652947191E-1
3.943512742E0,-3.569599986E-2,-1.030220017E-1,2.858420014E-1,3.059303630E-1
3.948523586E0,7.951200008E-2,-3.413999826E-2,2.649790049E-1,2.787500146E-1
3.953534352E0,1.519390047E-1,-4.870000121E-4,2.661390007E-1,3.064566298E-1
3.958545350E0,2.018260062E-1,3.383300081E-2,2.416329980E-1,3.166463555E-1
3.963556199E0,2.301409990E-1,3.393999860E-2,2.054979950E-1,3.103968893E-1
3.968566963E0,2.445649952E-1,-1.645999961E-3,1.645669937E-1,2.947830416E-1
3.973577732E0,2.387250066E-1,-1.848500036E-2,8.573000133E-2,2.543245115E-1
3.978588730E0,2.061589956E-1,-1.231699996E-2,-4.342000000E-3,2.065722463E-1
3.983599501E0,1.798900068E-1,-2.747999970E-3,-1.318230033E-1,2.230364774E-1
3.988610271E0,1.618279964E-1,4.583200067E-2,-2.272520065E-1,2.827230927E-1
3.993621115E0,1.400440037E-1,8.465199918E-2,-2.434529960E-1,2.933387891E-1
3.998631886E0,9.600300342E-2,1.233950034E-1,-2.593570054E-1,3.028348721E-1
4.003642884E0,5.368300155E-2,1.158350036E-1,-2.422270030E-1,2.738129538E-1
4.008653650E0,3.177399933E-2,1.047680005E-1,-2.422530055E-1,2.658428853E-1
4.013664420E0,3.190800175E-2,5.755100027E-2,-2.479940057E-1,2.565760415E-1
4.018675264E0,9.352999739E-3,-3.918999806E-3,-2.523379922E-1,2.525416787E-1
4.023686049E0,-5.018000025E-3,-1.004810035E-1,-2.628369927E-1,2.814336461E-1
4.028696818E0,-4.190099984E-2,-2.173770070E-1,-2.820070088E-1,3.585197484E-1
4.033707816E0,-9.395900369E-2,-3.145950139E-1,-2.927510142E-1,4.398880238E-1
4.038718573E0,-1.427859962E-1,-3.760100007E-1,-2.541959882E-1,4.758013890E-1
4.043729418E0,-1.773110032E-1,-4.049279988E-1,-1.947470009E-1,4.830447913E-1
4.048740189E0,-1.772550046E-1,-4.049409926E-1,-1.355679929E-1,4.623583295E-1
4.053751216E0,-1.648699939E-1,-3.419089913E-1,-5.680099875E-2,3.838101441E-1
4.058761987E0,-1.427890062E-1,-2.503080070E-1,1.085199974E-2,2.883757351E-1
4.063772821E0,-1.273020059E-1,-1.686269939E-1,5.080499873E-2,2.173062624E-1
4.068783592E0,-1.132209972E-1,-1.035389975E-1,9.159000218E-2,1.786842094E-1
4.073794362E0,-8.630900085E-2,-3.402600065E-2,9.993000329E-2,1.363562170E-1
4.078805131E0,-5.811899900E-2,1.645500027E-2,8.045499772E-2,1.006061218E-1
4.083815886E0,-1.903299987E-2,3.427699953E-2,4.240500182E-2,5.775250610E-2
4.088826884E0,2.384700067E-2,5.549899861E-2,-7.104000077E-3,6.082174862E-2
4.093837655E0,8.223000169E-2,8.283100277E-2,-3.954400122E-2,1.232334217E-1
4.098848519E0,1.277959943E-1,1.239480004E-1,-2.875999920E-2,1.803387382E-1
4.103859290E0,1.426039934E-1,1.551309973E-1,-4.166499898E-2,2.147964092E-1
4.108870049E0,1.439889967E-1,1.720370054E-1,-5.923499912E-2,2.320309194E-1
4.113881047E0,1.229259968E-1,1.729229987E-1,-6.973399967E-2,2.233293417E-1
4.118891818E0,1.033859998E-1,1.628099978E-1,-8.284399658E-2,2.099020917E-1
4.123902649E0,7.584500313E-2,1.421259940E-1,-9.637399763E-2,1.877237600E-1
4.128913420E0,4.283300042E-2,1.017979980E-1,-1.057579964E-1,1.529125637E-1
4.133924422E0,2.057000063E-2,6.354799867E-2,-9.681399912E-2,1.176198261E-1
4.138935193E0,-2.824000083E-3,3.392099962E-2,-1.099020019E-1,1.150524194E-1
4.143945962E0,-6.632999983E-3,1.989899948E-2,-1.019840017E-1,1.041186990E-1
4.148956817E0,-1.951299980E-2,-6.881000008E-3,-8.757399768E-2,8.998505649E-2
4.153967817E0,-2.751399949E-2,-4.875599965E-2,-6.915500015E-2,8.897517472E-2
4.158978589E0,-3.332199901E-2,-1.219070032E-1,-5.422399938E-2,1.375205990E-1
4.163989438E0,-3.499300033E-2,-1.772789955E-1,-6.142099947E-2,1.908530626E-1
4.169000132E0,-1.672800072E-2,-2.156219929E-1,-6.899499893E-2,2.270087658E-1
4.174010985E0,-3.281800076E-2,-2.049009949E-1,-8.331099898E-2,2.236116308E-1
4.179021757E0,-5.457799882E-2,-1.745869964E-1,-9.204799682E-2,2.047735603E-1
4.184032741E0,-7.732400298E-2,-1.347279996E-1,-1.069659963E-1,1.886063617E-1
4.189043512E0,-8.484499902E-2,-1.203029975E-1,-1.070540026E-1,1.820220990E-1
4.194054356E0,-9.147900343E-2,-9.584899992E-2,-1.160300002E-1,1.761204128E-1
4.199065332E0,-8.046100289E-2,-8.017600328E-2,-1.292649955E-1,1.720802241E-1
4.204076103E0,-6.640700251E-2,-8.184900135E-2,-1.089899987E-1,1.516178381E-1
4.209086887E0,-2.601099946E-2,-4.635100067E-2,-6.462299824E-2,8.367269122E-2
4.214097656E0,2.878499962E-2,9.669999592E-3,3.796000034E-3,3.060220109E-2
4.219108495E0,1.074509993E-1,6.476400048E-2,6.272300333E-2,1.402649926E-1
4.224119266E0,1.495539993E-1,1.213890016E-1,9.087699652E-2,2.129796162E-1
4.229130035E0,1.960860044E-1,1.676079929E-1,8.351399750E-2,2.711397208E-1
4.234141033E0,2.495390028E-1,2.271980047E-1,5.747300014E-2,3.423328687E-1
4.239151882E0,3.005979955E-1,2.536090016E-1,5.045399815E-2,3.965126562E-1
4.244162651E0,3.519470096E-1,2.616800070E-1,3.115300089E-2,4.396744626E-1
4.249173420E0,3.619470000E-1,2.431229949E-1,3.744100034E-2,4.376256962E-1
4.254184418E0,3.271940053E-1,2.196560055E-1,5.745400116E-2,3.982532361E-1
4.259194974E0,2.629739940E-1,1.793339998E-1,5.301799998E-2,3.226870207E-1
4.264205972E0,1.929360032E-1,1.451440006E-1,1.736699976E-2,2.420592798E-1
4.269216743E0,1.006769985E-1,1.114799976E-1,-7.058499753E-2,1.659695447E-1
4.274227587E0,1.669199951E-2,6.398600340E-2,-1.654600054E-1,1.781848615E-1
4.279238358E0,-5.042399839E-2,-2.097300068E-2,-2.914659977E-1,2.965381496E-1
4.284249127E0,-9.933900088E-2,-1.171490029E-1,-4.247890115E-1,4.517054685E-1
4.289260125E0,-1.407379955E-1,-1.726669967E-1,-5.245350003E-1,5.698754616E-1
4.294270974E0,-1.663829982E-1,-2.038139999E-1,-5.217390060E-1,5.843244296E-1
4.299281714E0,-1.702259928E-1,-2.153179944E-1,-4.596759975E-1,5.353884104E-1
4.304292483E0,-1.230169982E-1,-1.981309950E-1,-3.479540050E-1,4.188807260E-1
4.309303481E0,-5.175299942E-2,-1.555619985E-1,-2.388810068E-1,2.897275336E-1
4.314314252E0,-5.419999827E-3,-9.297300130E-2,-1.463389993E-1,1.734602493E-1
4.319325106E0,5.650899932E-2,-3.895999864E-2,-6.801199913E-2,9.662701756E-2
4.324335877E0,1.039989963E-1,1.351200044E-2,-2.519599907E-2,1.078573306E-1
4.329346646E0,1.313479990E-1,1.995600015E-2,-3.249299899E-2,1.367710999E-1
4.334357635E0,1.301430017E-1,-1.815100014E-2,-3.780499846E-2,1.367328695E-1
4.339368406E0,1.130039990E-1,-6.207200140E-2,-4.843499884E-2,1.377272168E-1
4.344379239E0,7.831200212E-2,-7.595600188E-2,-2.835699916E-2,1.127217960E-1
4.349390011E0,1.726900041E-2,-8.786900342E-2,3.896899894E-2,9.766147150E-2
4.354400780E0,-1.812399924E-2,-9.757000208E-2,1.485490054E-1,1.786482344E-1
4.359411778E0,-4.712999985E-2,-8.456899971E-2,2.314749956E-1,2.509060107E-1
4.364422626E0,-3.983100131E-2,-5.924800038E-2,2.903679907E-1,2.990157258E-1
4.369433390E0,-1.599299908E-2,-2.703900076E-2,3.230519891E-1,3.245758328E-1
4.374444160E0,7.786000147E-3,4.488000181E-3,3.273479939E-1,3.274713316E-1
4.379454934E0,1.322900038E-2,1.598699950E-2,2.699779868E-1,2.707742676E-1
4.384465932E0,-2.464199997E-2,-1.317699999E-2,1.937669963E-1,1.957715769E-1
4.389476732E0,-7.692799717E-2,-4.193900153E-2,1.464159936E-1,1.706295396E-1
4.394487501E0,-1.343079954E-1,-6.796900183E-2,1.015970036E-1,1.816049944E-1
4.399498345E0,-1.619639993E-1,-1.004609987E-1,8.051700145E-2,2.069003065E-1
4.404509103E0,-1.818919927E-1,-9.261400253E-2,6.447300315E-2,2.140533079E-1
4.409520101E0,-1.804710031E-1,-7.838299870E-2,4.161199927E-2,2.011100095E-1
4.414530872E0,-1.673350036E-1,-8.154200017E-2,-4.900999833E-3,1.862098843E-1
4.419541715E0,-1.452859938E-1,-1.159619987E-1,-6.339900196E-2,1.964042734E-1
4.424552486E0,-1.494240016E-1,-1.550430059E-1,-1.171440035E-1,2.451297279E-1
4.429563489E0,-1.607729942E-1,-2.050610036E-1,-1.235190034E-1,2.883659394E-1
4.434574030E0,-1.771620065E-1,-2.047280073E-1,-9.168799967E-2,2.858437035E-1
4.439585028E0,-1.795790046E-1,-2.068269998E-1,-6.946200132E-2,2.825791860E-1
4.444595799E0,-1.709090024E-1,-1.768130064E-1,-7.780999690E-2,2.579285210E-1
4.449606634E0,-1.559890062E-1,-1.435309947E-1,-9.514799714E-2,2.323507216E-1
4.454617634E0,-1.420450062E-1,-9.809199721E-2,-1.403020024E-1,2.224488156E-1
4.459628175E0,-1.131099984E-1,-4.232199863E-2,-1.155520007E-1,1.671445128E-1
4.464639177E0,-6.967599690E-2,3.102000058E-2,-4.493200034E-2,8.852044755E-2
4.469649948E0,6.738999858E-3,9.782300144E-2,-2.627999987E-3,9.809006124E-2
4.474660792E0,6.905899942E-2,1.582430005E-1,1.858899929E-2,1.736535157E-1
4.479671573E0,1.342850029E-1,2.074850053E-1,4.410000052E-3,2.471880610E-1
4.484682571E0,1.700959951E-1,2.550869882E-1,-4.974599928E-2,3.106069599E-1
4.489693343E0,1.867620051E-1,2.711820006E-1,-9.411899745E-2,3.424589168E-1
4.494704112E0,1.942619979E-1,2.785220146E-1,-9.572800249E-2,3.528116876E-1
4.499714956E0,1.976110041E-1,2.778050005E-1,-7.163500041E-2,3.483637475E-1
4.504725727E0,1.785530001E-1,2.396820039E-1,3.755999962E-3,2.989025667E-1
4.509736725E0,1.379110068E-1,1.953530014E-1,8.025500178E-2,2.522362112E-1
4.514747497E0,1.251460016E-1,1.403400004E-1,1.815290004E-1,2.613610824E-1
4.519758326E0,1.395149976E-1,6.261699647E-2,2.620350122E-1,3.033935900E-1
4.524769097E0,1.617140025E-1,-2.151199989E-2,3.147949874E-1,3.545561576E-1
4.529779866E0,1.404969990E-1,-1.338199973E-1,3.185969889E-1,3.730298108E-1
4.534790864E0,7.699099928E-2,-2.464119941E-1,2.405070066E-1,3.528315534E-1
4.539801636E0,-1.879899949E-2,-3.268330097E-1,1.720259935E-1,3.698190923E-1
4.544812405E0,-1.418000013E-1,-3.736880124E-1,1.088970006E-1,4.142565964E-1
4.549823249E0,-2.520639896E-1,-4.069809914E-1,1.793199964E-2,4.790525429E-1
4.554834025E0,-3.182800114E-1,-4.062600136E-1,-5.520699918E-2,5.190348515E-1
4.559845023E0,-3.445680141E-1,-3.518190086E-1,-1.410360038E-1,5.122449468E-1
4.564855794E0,-3.325729966E-1,-2.890770137E-1,-1.871919930E-1,4.787600236E-1
4.569866634E0,-2.604349852E-1,-2.365510017E-1,-1.943009943E-1,4.019149590E-1
4.574877405E0,-1.347589940E-1,-1.375660002E-1,-1.527239978E-1,2.457824452E-1
4.579888174E0,1.343999989E-3,-6.050400063E-2,-9.405200183E-2,1.118405985E-1
4.584899182E0,1.227310002E-1,-4.871000070E-3,-5.421499908E-2,1.342605347E-1
4.589909953E0,2.304999977E-1,5.813299865E-2,-2.350099944E-2,2.388765193E-1
4.594920723E0,3.280499876E-1,1.259779930E-1,-2.798900008E-2,3.525204011E-1
4.599931552E0,3.952589929E-1,1.965540051E-1,-4.844100028E-2,4.440829640E-1
4.604942323E0,4.057120085E-1,2.423180044E-1,-6.353099644E-2,4.768190816E-1
4.609953321E0,3.846580088E-1,2.592799962E-1,-1.093470007E-1,4.765969647E-1
4.614964092E0,3.240559995E-1,2.391330004E-1,-1.599680036E-1,4.333435645E-1
4.619974861E0,2.484440058E-1,2.111340016E-1,-2.108059973E-1,3.882539879E-1
4.624985711E0,1.699350029E-1,1.574410051E-1,-2.385559976E-1,3.325275016E-1
4.629996482E0,1.094760001E-1,8.374900371E-2,-2.485409975E-1,2.842033034E-1
4.635007251E0,3.385899961E-2,-1.116800029E-2,-2.125709951E-1,2.155402144E-1
4.640018249E0,-2.642199956E-2,-9.186299890E-2,-1.592299938E-1,1.857178601E-1
4.645029020E0,-5.835999921E-2,-1.588259935E-1,-9.084100276E-2,1.920512263E-1
4.650039790E0,-8.652900159E-2,-2.220969945E-1,-9.647999890E-3,2.385527761E-1
4.655050865E0,-9.060399979E-2,-2.683809996E-1,7.753100246E-2,2.936809528E-1
4.660061655E0,-1.061559990E-1,-3.504129946E-1,1.301240027E-1,3.885751137E-1
4.665072424E0,-1.611270010E-1,-4.217399955E-1,1.273870021E-1,4.690991181E-1
4.670083174E0,-2.036380023E-1,-4.457280040E-1,1.250289977E-1,5.057411786E-1
4.675094018E0,-2.439360023E-1,-4.332889915E-1,1.211830005E-1,5.117904287E-1
4.680104790E0,-2.848449945E-1,-3.624339998E-1,1.094930023E-1,4.737972063E-1
4.685115569E0,-2.960430086E-1,-2.699939907E-1,9.264200181E-2,4.112429433E-1
4.690126567E0,-2.738550007E-1,-1.449500024E-1,6.370600313E-2,3.163313444E-1
4.695137362E0,-1.912350059E-1,2.312999917E-3,1.800899953E-2,1.920950325E-1
4.700148206E0,-1.007369980E-1,1.222049966E-1,-5.909200013E-2,1.690380681E-1
4.705158963E0,-9.279999882E-3,1.948969960E-1,-1.348340064E-1,2.371732842E-1
4.710169732E0,8.117700368E-2,2.570959926E-1,-2.142899930E-1,3.443954942E-1
4.715180730E0,1.454550028E-1,3.010669947E-1,-2.406979948E-1,4.119878855E-1
4.720191501E0,1.987729967E-1,3.187650144E-1,-2.553119957E-1,4.542092621E-1
4.725202345E0,2.466769964E-1,2.977199852E-1,-2.469529957E-1,4.587728329E-1
4.730213112E0,2.362390012E-1,2.563009858E-1,-1.825959980E-1,3.934975978E-1
4.735223881E0,2.160860002E-1,1.860650033E-1,-1.105509996E-1,3.058347077E-1
4.740234879E0,1.796800047E-1,1.161310002E-1,-2.226999961E-3,2.139539035E-1
4.745245650E0,1.183350012E-1,5.765299872E-2,8.305499703E-2,1.556443809E-1
4.750256494E0,7.678599656E-2,-2.063999884E-3,1.287939996E-1,1.499608072E-1
4.755267275E0,3.187000053E-3,-6.565599889E-2,1.687269956E-1,1.810791711E-1
4.760278273E0,-5.293200165E-2,-1.200110018E-1,1.578930020E-1,2.052672342E-1
4.765289122E0,-9.484100342E-2,-1.681199968E-1,1.419290006E-1,2.395892119E-1
4.770299828E0,-1.189159974E-1,-1.827600002E-1,1.165999994E-1,2.472605751E-1
4.775310672E0,-1.190150008E-1,-1.910479963E-1,6.537599862E-2,2.343884137E-1
4.780321443E0,-1.221090034E-1,-1.723439991E-1,2.207900025E-2,2.123688890E-1
4.785332436E0,-1.424739957E-1,-1.086549982E-1,-7.958999835E-3,1.793546592E-1
4.790343208E0,-1.564089954E-1,-7.130800188E-2,-5.132099986E-2,1.793946766E-1
4.795354052E0,-1.549080014E-1,-4.522899911E-2,-6.057899818E-2,1.723715936E-1
4.800364761E0,-1.482190043E-1,1.004400011E-2,-1.420000009E-2,1.492360384E-1
4.805375605E0,-1.154410020E-1,7.281299680E-2,4.710600153E-2,1.443860548E-1
4.810386371E0,-7.574199885E-2,1.267299950E-1,1.255419999E-1,1.937992151E-1
4.815397141E0,-3.570200130E-2,1.505559981E-1,1.803800017E-1,2.376524489E-1
4.820408139E0,-4.219000228E-3,1.613059938E-1,2.116049975E-1,2.661091854E-1
4.825418987E0,2.171799913E-2,1.518429965E-1,1.810040027E-1,2.372560137E-1
4.830429756E0,3.793299943E-2,1.271450073E-1,1.125160009E-1,1.739672836E-1
4.835440530E0,6.346999854E-2,1.112169996E-1,3.480799869E-2,1.326998813E-1
4.840451528E0,1.124500036E-1,1.086829975E-1,-7.122199982E-2,1.718417019E-1
4.845462280E0,1.448889971E-1,9.853900224E-2,-1.937499940E-1,2.612313469E-1
4.850473124E0,1.589079946E-1,1.281349957E-1,-3.061330020E-1,3.679507342E-1
4.855483895E0,1.686870009E-1,1.719519943E-1,-3.609189987E-1,4.339185595E-1
4.860494664E0,1.580310017E-1,2.093210071E-1,-3.727999926E-1,4.558167570E-1
4.865505662E0,1.527680010E-1,2.480729967E-1,-3.158459961E-1,4.296940389E-1
4.870516434E0,1.503690034E-1,2.671520114E-1,-2.357800007E-1,3.867470014E-1
4.875527222E0,1.621810049E-1,2.759490013E-1,-1.517570019E-1,3.542325751E-1
4.880538066E0,1.623429954E-1,2.271150053E-1,-1.118139997E-1,3.007305177E-1
4.885548828E0,1.323439926E-1,1.426479965E-1,-8.258499950E-2,2.113851117E-1
4.890559826E0,8.229000121E-2,2.784400061E-2,-5.465999991E-2,1.026384346E-1
4.895570597E0,2.883500047E-2,-8.870399743E-2,-2.081499994E-2,9.556736177E-2
4.900581367E0,-2.134799957E-2,-1.768379956E-1,2.891200036E-2,1.804530896E-1
4.905592211E0,-6.152800098E-2,-2.356639951E-1,3.775100037E-2,2.464718068E-1
4.910603235E0,-8.040799946E-2,-2.570660114E-1,2.783500031E-2,2.707825102E-1
4.915614006E0,-1.089560017E-1,-2.678650022E-1,-7.751999889E-3,2.892804231E-1
4.920624775E0,-1.353690028E-1,-2.473859936E-1,-4.709500074E-2,2.859065159E-1
4.925635630E0,-1.481339931E-1,-2.147759944E-1,-7.112299651E-2,2.704272330E-1
4.930646401E0,-1.429329962E-1,-1.585389972E-1,-8.207699656E-2,2.286943121E-1
4.935657170E0,-1.156509966E-1,-7.705599815E-2,-1.203730032E-1,1.838543982E-1
4.940668168E0,-7.592900097E-2,1.573799923E-2,-1.287869960E-1,1.503295984E-1
4.945678934E0,-4.704999924E-2,9.868600219E-2,-1.552489996E-1,1.898812295E-1
4.950689778E0,-2.847100049E-2,1.351950020E-1,-1.621959955E-1,2.130629657E-1
4.955700550E0,5.834000185E-3,1.780730039E-1,-1.712830067E-1,2.471475241E-1
4.960711533E0,2.775900066E-2,1.783809960E-1,-1.758719981E-1,2.520343261E-1
4.965722304E0,5.872299895E-2,1.820539981E-1,-1.594610065E-1,2.490378715E-1
4.970733139E0,8.464699984E-2,1.571660042E-1,-1.012459993E-1,2.052243159E-1
4.975743910E0,8.494000137E-2,1.447660029E-1,8.298999630E-3,1.680502092E-1
4.980754680E0,7.696399838E-2,1.250919998E-1,5.949399993E-2,1.584645117E-1
4.985765453E0,1.002840027E-1,1.213430017E-1,1.051649973E-1,1.893163541E-1
4.990776222E0,1.168359965E-1,1.218810007E-1,1.858640015E-1,2.510996923E-1
4.995787220E0,1.013789997E-1,9.126900136E-2,2.704229951E-1,3.028800562E-1
5.000798054E0,8.050800115E-2,5.765400082E-2,3.208799958E-1,3.358116939E-1
5.005808823E0,5.669400096E-2,-7.954999804E-3,3.158490062E-1,3.209954618E-1
5.010819607E0,2.519699931E-2,-9.612599760E-2,2.745519876E-1,2.919826880E-1
5.015830605E0,-2.640000079E-3,-1.507219970E-1,2.047079951E-1,2.542232350E-1
5.020841376E0,-3.203900158E-2,-1.517190039E-1,1.404889971E-1,2.092422330E-1
5.025852136E0,-6.565699726E-2,-1.258520037E-1,1.107660010E-1,1.800518678E-1
5.030862980E0,-9.404399991E-2,-1.047149971E-1,3.439600021E-2,1.448881961E-1
5.035873752E0,-1.198510006E-1,-8.365000039E-2,-4.073999822E-2,1.517278233E-1
5.040884511E0,-1.480800062E-1,-5.318700150E-2,-1.074519977E-1,1.905320896E-1
5.045895509E0,-1.742630005E-1,-1.816999912E-2,-1.729329973E-1,2.461779108E-1
5.050906362E0,-1.707250029E-1,1.688599959E-2,-2.159399986E-1,2.757938480E-1
5.055917131E0,-1.500280052E-1,5.255600065E-2,-2.200939953E-1,2.714993597E-1
5.060927901E0,-1.124420017E-1,6.101400033E-2,-2.241590023E-1,2.580952737E-1
5.065938889E0,-6.527899951E-2,1.011279970E-1,-2.444330007E-1,2.724623119E-1
5.070949660E0,2.927999943E-3,1.189979985E-1,-2.456530035E-1,2.729734327E-1
5.075960494E0,8.044300228E-2,1.618009955E-1,-2.729069889E-1,3.273054587E-1
5.080971265E0,1.116809994E-1,2.083940059E-1,-3.117229939E-1,3.912440827E-1
5.085982039E0,1.355659962E-1,2.218679935E-1,-3.339700103E-1,4.232487609E-1
5.090992809E0,1.476279944E-1,2.316800058E-1,-3.327929974E-1,4.315331145E-1
5.096003807E0,1.690360010E-1,2.364310026E-1,-2.824349999E-1,4.052682048E-1
5.101014569E0,1.904049963E-1,2.223930061E-1,-2.095180005E-1,3.600145890E-1
5.106025413E0,2.072809935E-1,1.970120072E-1,-1.356739998E-1,3.165226303E-1
5.111036164E0,2.151809931E-1,1.771160066E-1,-3.697200119E-2,2.811403003E-1
5.116047162E0,2.142920047E-1,1.596540064E-1,4.626499861E-2,2.712027196E-1
5.121057929E0,1.999530047E-1,1.420409977E-1,1.500439942E-1,2.875239978E-1
5.126068698E0,1.936450005E-1,1.045389995E-1,2.028719932E-1,2.993055867E-1
5.131079542E0,1.439529955E-1,6.113500148E-2,2.266609967E-1,2.753818453E-1
5.136090557E0,1.124010012E-1,8.864000440E-3,2.072370052E-1,2.359231483E-1
5.141101328E0,3.564799950E-2,-2.930399962E-2,1.380999982E-1,1.456060225E-1
5.146112118E0,-3.932000138E-3,-6.108900160E-2,4.084800184E-2,7.359270341E-2
5.151122887E0,-4.252900183E-2,-6.793300062E-2,-6.991200149E-2,1.063545792E-1
5.156133741E0,-1.035400033E-1,-1.108150035E-1,-1.540399939E-1,2.161684922E-1
5.161144512E0,-1.353289932E-1,-1.510999948E-1,-2.262219936E-1,3.038445905E-1
5.166155510E0,-1.694319993E-1,-1.526439935E-1,-2.005070001E-1,3.036617332E-1
5.171166295E0,-2.031909972E-1,-1.608880013E-1,-1.917199939E-1,3.223787934E-1
5.176177065E0,-2.019490004E-1,-1.895579994E-1,-1.573020071E-1,3.185271657E-1
5.181187904E0,-1.712149978E-1,-1.963669956E-1,-1.328649968E-1,2.924511579E-1
5.186198675E0,-1.326290071E-1,-1.959919930E-1,-1.182700023E-1,2.645583268E-1
5.191209444E0,-7.478400320E-2,-1.841890067E-1,-1.181209981E-1,2.312375565E-1
5.196220452E0,-2.579800040E-2,-1.658859998E-1,-1.202870011E-1,2.065252149E-1
5.201231224E0,9.640000062E-4,-1.464899927E-1,-1.793439984E-1,2.315696807E-1
5.206242068E0,8.297000080E-3,-9.314700216E-2,-2.326869965E-1,2.507756817E-1
5.211252824E0,-1.242799964E-2,-5.335399881E-2,-3.018899858E-1,3.068202534E-1
5.216263822E0,4.383999854E-3,2.696499974E-2,-3.555830121E-1,3.566309145E-1
5.221274579E0,2.986400016E-2,6.802099943E-2,-3.778199852E-1,3.850540950E-1
5.226285348E0,7.548599690E-2,7.581000030E-2,-3.788520098E-1,3.936675465E-1
5.231296193E0,8.768700063E-2,6.258899719E-2,-4.088439941E-1,4.227999577E-1
5.236306964E0,7.645100355E-2,4.846199974E-2,-3.748930097E-1,3.856657751E-1
5.241317733E0,5.405399948E-2,2.460299991E-2,-3.036450148E-1,3.093985091E-1
5.246328731E0,1.372599974E-2,-1.346599963E-2,-2.310850024E-1,2.318836229E-1
5.251339502E0,-2.783500031E-2,-4.195199907E-2,-1.212589964E-1,1.312954747E-1
5.256350347E0,-4.252399877E-2,-6.861100346E-2,-5.054200068E-2,9.523788164E-2
5.261361103E0,-5.215900019E-2,-9.382099658E-2,3.146699816E-2,1.118620252E-1
5.266371872E0,-5.465900153E-2,-1.341229975E-1,1.030860022E-1,1.777731947E-1
5.271382870E0,-5.496099964E-2,-1.759350002E-1,1.263950020E-1,2.234939201E-1
5.276393622E0,-7.427600026E-2,-1.821410060E-1,1.331319958E-1,2.375213645E-1
5.281404466E0,-8.218199760E-2,-1.510210037E-1,1.594160050E-1,2.344668142E-1
5.286415228E0,-6.277400255E-2,-9.758800268E-2,1.815019995E-1,2.154227692E-1
5.291425997E0,-3.522599861E-2,-6.660699844E-2,2.110060006E-1,2.240555635E-1
5.296436995E0,-3.221200034E-2,-1.041200012E-2,2.648980021E-1,2.670523811E-1
5.301447766E0,-3.429400176E-2,4.682900012E-2,3.026550114E-1,3.081705530E-1
5.306458634E0,-2.260500006E-2,8.619400114E-2,3.456630111E-1,3.569640165E-1
5.311469406E0,7.304000203E-3,1.080159992E-1,3.817439973E-1,3.967987954E-1
5.316480185E0,2.749099955E-2,1.168669984E-1,3.871879876E-1,4.053741335E-1
5.321491183E0,6.401800364E-2,1.435720026E-1,4.003829956E-1,4.301369176E-1
5.326501939E0,7.488799840E-2,1.730899960E-1,3.548179865E-1,4.018260352E-1
5.331512783E0,8.165899664E-2,1.796460003E-1,2.980859876E-1,3.574858502E-1
5.336523555E0,8.691400290E-2,1.731780022E-1,2.348250002E-1,3.044461283E-1
5.341534310E0,8.589500189E-2,1.660290062E-1,1.792120039E-1,2.589604692E-1
5.346545079E0,8.382099867E-2,1.535699964E-1,1.049109995E-1,2.040000525E-1
5.351556077E0,6.219900027E-2,1.334840059E-1,2.410999965E-3,1.472837683E-1
5.356566838E0,4.501000047E-2,1.035050005E-1,-1.426980048E-1,1.819392917E-1
5.361577682E0,1.545299962E-2,6.219099835E-2,-2.519249916E-1,2.599475271E-1
5.366588682E0,-1.028100029E-2,8.139000274E-3,-3.234440088E-1,3.237096989E-1
5.371599209E0,-5.592200160E-2,-4.374599829E-2,-3.455300033E-1,3.527491542E-1
5.376610207E0,-8.154100180E-2,-7.737900317E-2,-3.706089854E-1,3.872821519E-1
5.381620978E0,-9.525600076E-2,-8.801999688E-2,-3.365840018E-1,3.607076597E-1
5.386631836E0,-1.047220007E-1,-9.956499934E-2,-2.746500075E-1,3.103425738E-1
5.391642608E0,-1.080290005E-1,-1.308590025E-1,-1.993850023E-1,2.618181097E-1
5.396653592E0,-1.101410016E-1,-1.447169930E-1,-1.389880031E-1,2.288923619E-1
5.401664440E0,-1.253049970E-1,-1.416720003E-1,-6.925600022E-2,2.014167111E-1
5.406675209E0,-1.509979963E-1,-1.267620027E-1,3.149100021E-2,1.996514045E-1
5.411685992E0,-1.613460034E-1,-1.030149981E-1,1.299940050E-1,2.313937423E-1
5.416696761E0,-1.587810069E-1,-7.342000306E-2,1.954250038E-1,2.622838865E-1
5.421707759E0,-1.178689972E-1,-5.244800076E-2,2.516309917E-1,2.827756164E-1
5.426718555E0,-4.866399989E-2,-1.448000036E-2,2.605969906E-1,2.654969808E-1
5.431729399E0,6.697999686E-2,4.963500053E-2,2.822000086E-1,2.942563476E-1
5.436740170E0,1.562989950E-1,8.822300285E-2,2.970559895E-1,3.470661824E-1
5.441750939E0,2.251529992E-1,1.158590019E-1,2.812969983E-1,3.784774532E-1
5.446761937E0,2.769330144E-1,1.236440018E-1,2.443210036E-1,3.894515200E-1
5.451772786E0,2.960720062E-1,1.306039989E-1,1.767940074E-1,3.687440284E-1
5.456783559E0,2.928720117E-1,1.157609969E-1,8.572199941E-2,3.263784380E-1
5.461794328E0,2.494989932E-1,5.881100148E-2,-1.256499998E-2,2.566444247E-1
5.466805121E0,1.345909983E-1,-3.204799816E-2,-1.278460026E-1,1.883783729E-1
5.471816119E0,3.110300004E-2,-8.031299710E-2,-1.716700047E-1,1.920629184E-1
5.476826891E0,-4.747899994E-2,-1.105410010E-1,-2.180320024E-1,2.490211285E-1
5.481837684E0,-9.961599857E-2,-1.606689990E-1,-2.815839946E-1,3.391569260E-1
5.486848528E0,-1.588910073E-1,-1.928520054E-1,-3.381829858E-1,4.204830318E-1
5.491859299E0,-2.117349952E-1,-2.213899940E-1,-3.759999871E-1,4.849961113E-1
5.496870312E0,-2.449260056E-1,-2.386180013E-1,-3.475790024E-1,4.875843124E-1
5.501881083E0,-2.293999940E-1,-2.514449954E-1,-2.605389953E-1,4.286368055E-1
5.506891928E0,-1.850820035E-1,-2.650380135E-1,-1.722369939E-1,3.662868803E-1
5.511902699E0,-1.083989963E-1,-2.469709963E-1,-7.037299871E-2,2.787424875E-1
5.516913697E0,-3.025100008E-2,-2.215480059E-1,3.808800131E-2,2.268244647E-1
5.521924453E0,4.715399817E-2,-1.759369969E-1,9.170400351E-2,2.039287883E-1
5.526935222E0,1.077779979E-1,-1.086639985E-1,1.149540022E-1,1.914115567E-1
5.531945992E0,1.452330053E-1,-3.010799922E-2,1.011739969E-1,1.795419035E-1
5.536956761E0,1.276019961E-1,2.002600022E-2,9.319700301E-2,1.592764623E-1
5.541967605E0,6.137700006E-2,4.019799829E-2,8.607999980E-2,1.131051792E-1
5.546978376E0,-1.478399988E-2,4.102800041E-2,1.056879982E-1,1.143320447E-1
5.551989369E0,-6.566999853E-2,3.479899839E-2,1.350090057E-1,1.541134342E-1
5.557000140E0,-9.184599668E-2,2.640799992E-2,1.691229939E-1,1.942566772E-1
5.562010985E0,-8.909200132E-2,1.828500070E-2,1.887820065E-1,2.095480182E-1
5.567021971E0,-6.500399858E-2,1.288199984E-2,2.082500011E-1,2.185395358E-1
5.572032742E0,-3.376200050E-2,-1.329800021E-2,2.058089972E-1,2.089833792E-1
5.577043521E0,-1.397300046E-2,-2.233299986E-2,1.864999980E-1,1.883514185E-1
5.582054290E0,1.326000039E-2,-4.013900086E-2,1.764129996E-1,1.814070380E-1
5.587065125E0,8.454999886E-3,-5.246600136E-2,1.446720064E-1,1.541238390E-1
5.592075896E0,-1.845999970E-3,-7.339599729E-2,1.031420007E-1,1.266043145E-1
5.597086894E0,-2.210099995E-2,-9.623599797E-2,2.100699954E-2,1.009510551E-1
5.602097670E0,-4.298700020E-2,-1.162640005E-1,-5.866400152E-2,1.371373949E-1
5.607108439E0,-9.041699767E-2,-1.262069941E-1,-1.119240001E-1,1.913907537E-1
5.612119283E0,-1.384470016E-1,-1.310500056E-1,-1.602569968E-1,2.490461427E-1
5.617130045E0,-1.712449938E-1,-1.306899935E-1,-1.751379967E-1,2.776293215E-1
5.622140814E0,-1.847549975E-1,-1.187549978E-1,-2.017499954E-1,2.982284682E-1
5.627151812E0,-1.497090012E-1,-8.400899917E-2,-2.137130052E-1,2.741232306E-1
5.632162569E0,-1.121129990E-1,-3.399299830E-2,-2.109470069E-1,2.412954376E-1
5.637173413E0,-4.893599823E-2,1.251900010E-2,-1.746360064E-1,1.817943674E-1
5.642184185E0,1.365400013E-2,6.030299887E-2,-1.215130016E-1,1.363388901E-1
5.647195192E0,3.887100145E-2,9.017299861E-2,-1.183139980E-1,1.537541107E-1
5.652205963E0,4.859299958E-2,9.572999924E-2,-9.118500352E-2,1.408553060E-1
5.657216742E0,5.030500144E-2,7.502300292E-2,-7.378800213E-2,1.166349579E-1
5.662227586E0,3.507300094E-2,3.581999987E-2,-4.237699881E-2,6.564295708E-2
5.667238353E0,2.645700052E-2,4.455999937E-3,5.859999801E-4,2.683602445E-2
5.672249351E0,1.759600081E-2,-1.507399976E-2,7.681000046E-3,2.440988478E-2
5.677260122E0,2.934500016E-2,-1.576999947E-2,3.392200172E-2,4.754496944E-2
5.682270891E0,4.290699959E-2,-3.302599862E-2,4.322800040E-2,6.928482675E-2
5.687281735E0,6.533300132E-2,-4.299400002E-2,6.194100156E-2,9.976759380E-2
5.692292506E0,7.798899710E-2,-3.621400148E-2,8.301699907E-2,1.195222143E-1
5.697303489E0,9.539700300E-2,-4.808599874E-2,9.667299688E-2,1.440781725E-1
5.702314261E0,8.517199755E-2,-7.603999972E-2,7.189399749E-2,1.349262673E-1
5.707325016E0,7.386499643E-2,-1.057899967E-1,3.267600015E-2,1.330987681E-1
5.712335785E0,5.914099887E-2,-1.421959996E-1,-3.289699927E-2,1.574788005E-1
5.717346629E0,3.390900046E-2,-1.662710011E-1,-1.032039970E-1,1.986125150E-1
5.722357415E0,2.161099948E-2,-1.879509985E-1,-1.972890049E-1,2.733414799E-1
5.727368184E0,1.905900054E-2,-2.066780031E-1,-2.437539995E-1,3.201484885E-1
5.732379172E0,3.053300083E-2,-2.064400017E-1,-3.021489978E-1,3.672107778E-1
5.737389943E0,3.190600127E-2,-1.899050027E-1,-3.436599970E-1,3.939341271E-1
5.742400792E0,2.548399940E-2,-1.521259993E-1,-3.157329857E-1,3.513958910E-1
5.747411563E0,2.055300027E-2,-1.030630022E-1,-2.828339934E-1,3.017274865E-1
5.752422333E0,-1.536000054E-3,-6.390099972E-2,-2.283059955E-1,2.370850578E-1
5.757433331E0,-5.619999953E-3,-3.903599828E-2,-1.596309990E-1,1.644306826E-1
5.762444179E0,-1.066500042E-2,-1.443899982E-2,-9.337099642E-2,9.508085991E-2
5.767454948E0,6.705000065E-3,3.107799962E-2,-1.269499958E-2,3.423393201E-2
5.772465975E0,6.469599903E-2,7.134900242E-2,8.696000278E-2,1.297624542E-1
5.777476746E0,1.393029988E-1,1.321499944E-1,1.795330048E-1,2.628707787E-1
5.782487506E0,1.888169944E-1,1.612139940E-1,2.387380004E-1,3.444381542E-1
5.787498275E0,2.238180041E-1,1.842429936E-1,2.147790045E-1,3.607907987E-1
5.792509129E0,2.240030020E-1,1.733819991E-1,1.863999963E-1,3.390923490E-1
5.797519900E0,2.092459947E-1,1.621450037E-1,1.273829937E-1,2.937708556E-1
5.802530898E0,1.660609990E-1,1.340110004E-1,2.338100038E-2,2.146668927E-1
5.807541670E0,1.067579985E-1,9.430299699E-2,-7.795400172E-2,1.623796535E-1
5.812552439E0,4.541699961E-2,3.897900134E-2,-1.626700014E-1,1.733308852E-1
5.817563288E0,-1.355300006E-2,-1.018700004E-2,-2.309399992E-1,2.315615297E-1
5.822574059E0,-5.908299983E-2,-5.993200094E-2,-2.615770102E-1,2.747820552E-1
5.827585061E0,-8.271899819E-2,-9.829200059E-2,-2.691040039E-1,2.981957662E-1
5.832595832E0,-9.720200300E-2,-1.297519952E-1,-2.154970020E-1,2.696715920E-1
5.837606677E0,-1.146370023E-1,-1.405320019E-1,-1.507489979E-1,2.358307576E-1
5.842617448E0,-1.257440001E-1,-1.451950073E-1,-5.326399952E-2,1.993243521E-1
5.847628217E0,-1.260340065E-1,-1.674049944E-1,5.046200007E-2,2.155351859E-1
5.852639215E0,-9.507299960E-2,-1.582199931E-1,1.465400010E-1,2.356828661E-1
5.857649981E0,-5.226200074E-2,-1.280090064E-1,2.568460107E-1,2.916976099E-1
5.862660826E0,-1.396800019E-2,-8.934000134E-2,3.506160080E-1,3.620888371E-1
5.867671593E0,1.355499960E-2,-7.087299973E-2,4.136120081E-1,4.198590399E-1
5.872682362E0,2.629400045E-2,-5.386599898E-2,4.389599860E-1,4.430336213E-1
5.877693360E0,3.912900016E-2,-5.733399838E-2,4.171029925E-1,4.228394168E-1
5.882704121E0,1.726300083E-2,-6.203699857E-2,3.816620111E-1,3.870561860E-1
5.887714891E0,1.533799991E-2,-6.343600154E-2,3.135429919E-1,3.202633109E-1
5.892725660E0,3.062899970E-2,-6.407599896E-2,2.175550014E-1,2.288537697E-1
5.897736504E0,5.579100177E-2,-4.300700128E-2,8.677099645E-2,1.117651281E-1
5.902747289E0,8.124200255E-2,-2.400100045E-2,-6.931000203E-2,1.094540423E-1
5.907758058E0,1.066799983E-1,2.658700012E-2,-1.742260009E-1,2.060150238E-1
5.912769056E0,1.204209998E-1,8.293800056E-2,-2.449200004E-1,2.852467980E-1
5.917779891E0,1.507579982E-1,1.361079961E-1,-2.961060107E-1,3.590712049E-1
5.922790660E0,1.738310009E-1,1.679250002E-1,-3.162730038E-1,3.980510464E-1
5.927801429E0,1.805569977E-1,1.562799960E-1,-2.846879959E-1,3.715797648E-1
5.932812427E0,1.550939977E-1,1.018270031E-1,-2.781069875E-1,3.343147965E-1
5.937823198E0,1.143859997E-1,4.532099888E-2,-2.654420137E-1,2.925706966E-1
5.942833963E0,4.460100085E-2,-8.263999596E-3,-2.084150016E-1,2.132940596E-1
5.947844807E0,-3.270500153E-2,-5.486200005E-2,-1.665019989E-1,1.783321951E-1
5.952855594E0,-1.200309992E-1,-8.526399732E-2,-9.407199919E-2,1.747195783E-1
5.957866592E0,-1.730599999E-1,-1.004810035E-1,-3.866099939E-2,2.038157710E-1
5.962877440E0,-1.973579973E-1,-1.106299981E-1,2.269000048E-3,2.262616272E-1
5.967888194E0,-2.237560004E-1,-1.418910027E-1,9.552000090E-3,2.651245840E-1
5.972898964E0,-2.242030054E-1,-1.613740027E-1,-9.441000409E-3,2.764013185E-1
5.977909738E0,-1.949149966E-1,-1.577620059E-1,-4.259400070E-2,2.543520303E-1
5.982920736E0,-1.739490032E-1,-1.198370010E-1,-6.319800019E-2,2.204838991E-1
5.987931507E0,-1.379809976E-1,-1.064160019E-1,-6.464800239E-2,1.858560878E-1
5.992942266E0,-1.085259989E-1,-9.519699961E-2,-1.619900018E-2,1.452679207E-1
5.997953111E0,-9.003400058E-2,-4.122599959E-2,8.962199837E-2,1.335582528E-1
6.002963882E0,-1.228999998E-2,2.604000038E-3,1.833000034E-1,1.837300089E-1
6.007974880E0,7.210599631E-2,2.905800007E-2,2.529050112E-1,2.645837991E-1
6.012985656E0,1.494890004E-1,3.869599849E-2,3.461419940E-1,3.790232467E-1
6.017996500E0,2.344689965E-1,3.114300035E-2,3.723030090E-1,4.410840366E-1
6.023007271E0,2.552269995E-1,-7.737999782E-3,3.364230096E-1,4.223519141E-1
6.028018041E0,2.300940007E-1,-3.532600030E-2,2.580890059E-1,3.475645414E-1
6.033029039E0,1.767199934E-1,-6.378199905E-2,1.327300072E-1,2.300333764E-1
6.038039805E0,1.119650006E-1,-7.439000160E-2,-2.029800043E-2,1.359486761E-1
6.043050649E0,4.775400087E-2,-9.058500081E-2,-1.677359939E-1,1.965234098E-1
6.048061425E0,-4.470000044E-3,-9.785799682E-2,-3.049409986E-1,3.202892147E-1
6.053072195E0,-4.767400026E-2,-1.097770035E-1,-4.084419906E-1,4.256156253E-1
6.058083193E0,-8.493000269E-2,-1.160899997E-1,-4.427619874E-1,4.655407296E-1
6.063093964E0,-1.236850023E-1,-1.281760037E-1,-4.369269907E-1,4.718392342E-1
6.068104743E0,-1.387789994E-1,-1.130319983E-1,-3.956649899E-1,4.342656187E-1
6.073115587E0,-1.311630011E-1,-9.667800367E-2,-3.025049865E-1,3.435980735E-1
6.078126359E0,-1.201800033E-1,-7.466799766E-2,-2.003930062E-1,2.453077659E-1
6.083137128E0,-8.950299770E-2,-4.520500079E-2,-9.628999978E-2,1.390181382E-1
6.088148126E0,-6.007999927E-2,-3.244800121E-2,-4.025499895E-2,7.926502403E-2
6.093158897E0,-5.259200186E-2,-2.301399969E-2,-6.519799680E-2,8.686968186E-2
6.098169741E0,-5.470100045E-2,-2.626300044E-2,-1.113440022E-1,1.268046981E-1
6.103180512E0,-7.553800195E-2,-2.754000016E-2,-1.452639997E-1,1.660303314E-1
6.108191282E0,-9.817499667E-2,-5.252899975E-2,-1.959470063E-1,2.253727026E-1
6.113202051E0,-1.180360019E-1,-6.993500143E-2,-2.300110012E-1,2.678216998E-1
6.118213049E0,-1.098399982E-1,-6.515900046E-2,-2.142270058E-1,2.494067573E-1
6.123223897E0,-2.568800002E-2,-2.904199995E-2,-1.583240032E-1,1.630024573E-1
6.128234666E0,8.592300117E-2,2.879899926E-2,-6.237500161E-2,1.100126598E-1
6.133245436E0,2.012300044E-1,7.503899932E-2,4.485699907E-2,2.194003566E-1
6.138256219E0,2.950170040E-1,9.831199795E-2,1.656569988E-1,3.523386479E-1
6.143267217E0,3.310979903E-1,6.348899752E-2,2.473440021E-1,4.181336956E-1
6.148277988E0,3.322699964E-1,1.298299991E-2,2.569110096E-1,4.202084907E-1
6.153288821E0,2.644239962E-1,-2.507700026E-2,2.427439988E-1,3.598243386E-1
6.158299821E0,1.152850017E-1,-6.263399869E-2,2.338390052E-1,2.681311802E-1
6.163310592E0,-5.980100110E-2,-8.564800024E-2,2.303799987E-1,2.529558923E-1
6.168321452E0,-1.789650023E-1,-6.673199683E-2,2.398909926E-1,3.066420059E-1
6.173332146E0,-2.185129970E-1,-4.472000152E-2,2.215690017E-1,3.143892983E-1
6.178342985E0,-1.853490025E-1,-1.033999957E-2,2.135269940E-1,2.829398266E-1
6.183353756E0,-1.327649951E-1,1.069299970E-2,2.369260043E-1,2.717992194E-1
6.188364754E0,-7.953099906E-2,-1.929999999E-4,2.221589983E-1,2.359657551E-1
6.193375526E0,-3.462100029E-2,-1.760000014E-4,1.861760020E-1,1.893677596E-1
6.198386370E0,9.266999550E-3,-1.398999942E-3,1.219009981E-1,1.222607370E-1
6.203397155E0,5.682500079E-2,1.973900013E-2,6.775800139E-2,9.060825345E-2
6.208407924E0,8.226700127E-2,4.907400161E-2,2.134400047E-2,9.814114065E-2
6.213418908E0,1.069959998E-1,9.359200299E-2,-1.487199962E-2,1.429292950E-1
6.218429680E0,1.147710010E-1,1.418299973E-1,-1.951400004E-2,1.834909453E-1
6.223440449E0,1.130520031E-1,1.776449978E-1,-7.172000129E-3,2.106891982E-1
6.228451298E0,9.319899976E-2,1.848720014E-1,-1.627399959E-2,2.076741523E-1
6.233462069E0,6.737200171E-2,1.573140025E-1,-1.135400031E-2,1.715097529E-1
6.238473067E0,3.811600059E-2,1.215199977E-1,-2.360700071E-2,1.295269463E-1
6.243483833E0,1.012500003E-2,7.324200124E-2,-1.980100013E-2,7.654401333E-2
6.248494678E0,-1.415199973E-2,1.511000004E-2,-2.396799996E-2,3.167106281E-2
6.253505449E0,-1.869400032E-2,-2.228399925E-2,-9.649000131E-3,3.064548048E-2
6.258516203E0,-8.720000274E-3,-7.469700277E-2,-1.286400016E-2,7.629654728E-2
6.263527201E0,-3.475999925E-3,-7.190799713E-2,-1.853800006E-2,7.434043364E-2
6.268537972E0,-1.455600001E-2,-7.118500024E-2,-2.765000099E-3,7.271056747E-2
6.273548742E0,-1.832100004E-2,-6.087199971E-2,1.780599914E-2,6.601600561E-2
6.278559511E0,-3.813099861E-2,-5.121700093E-2,-4.282999784E-3,6.399608056E-2
6.283570355E0,-2.982600033E-2,-2.541399933E-2,3.364299983E-2,5.164603659E-2
6.288581136E0,-3.587099910E-2,-5.253999960E-3,4.325599968E-2,5.643947732E-2
6.293592134E0,-3.038199991E-2,4.534999840E-3,5.078599975E-2,5.935360067E-2
6.298602914E0,-1.360000018E-2,8.561999537E-3,3.952699900E-2,4.266909292E-2
6.303613684E0,-9.123999625E-3,-2.831000090E-2,6.787000224E-3,3.050847246E-2
6.308624528E0,6.504999939E-3,-6.707499921E-2,9.588999674E-3,6.806849094E-2
6.313635299E0,2.626099996E-2,-1.075370014E-1,2.154199965E-2,1.127736872E-1
6.318646297E0,4.315700009E-2,-1.166900024E-1,5.247699842E-2,1.350293252E-1
6.323657078E0,6.209899858E-2,-1.074429974E-1,4.781299829E-2,1.329900978E-1
6.328667923E0,9.006199986E-2,-8.703800291E-2,4.822700098E-2,1.342111076E-1
6.333678699E0,9.659399837E-2,-6.736700237E-2,3.942599893E-2,1.241898664E-1
6.338689468E0,1.103660017E-1,-5.669000093E-3,8.137399703E-2,1.372389132E-1
6.343700237E0,1.315300018E-1,4.537900165E-2,9.035299718E-2,1.659007512E-1
6.348711245E0,1.598969996E-1,1.001259983E-1,1.142029986E-1,2.205325166E-1
6.353722093E0,1.607200056E-1,1.089909971E-1,7.620699704E-2,2.086083988E-1
6.358732863E0,1.975139976E-1,1.291549951E-1,4.332400113E-2,2.399369939E-1
6.363743632E0,2.319149971E-1,1.343449950E-1,-2.755000070E-2,2.694292970E-1
6.368754630E0,1.522060037E-1,1.159690022E-1,-7.419700176E-2,2.052332139E-1
6.373765387E0,6.366500258E-2,9.589300305E-2,-1.111240014E-1,1.599913882E-1
6.378776156E0,-1.758500002E-2,6.028699875E-2,-1.290999949E-1,1.435637946E-1
6.383787001E0,-1.015990004E-1,5.410999991E-3,-9.039399773E-2,1.360981654E-1
6.388797786E0,-1.770980060E-1,-5.179199949E-2,-9.556000121E-3,1.847631784E-1
6.393808784E0,-2.285459936E-1,-9.938099980E-2,1.156359985E-1,2.747390370E-1
6.398819555E0,-2.426349968E-1,-1.518409997E-1,2.611559927E-1,3.874659771E-1
6.403830385E0,-2.342910022E-1,-1.904069930E-1,4.438399971E-1,5.367877045E-1
6.408841157E0,-2.038529962E-1,-2.180940062E-1,6.423889995E-1,7.083676067E-1
6.413851935E0,-1.396310031E-1,-1.848420054E-1,7.766119838E-1,8.104255409E-1
6.418862704E0,-5.599199980E-2,-1.274710000E-1,8.876079917E-1,8.984608543E-1
6.423873702E0,6.107699871E-2,-3.115000017E-2,9.068199992E-1,9.094081775E-1
6.428884478E0,1.834370047E-1,3.006199934E-2,8.270999789E-1,8.477306374E-1
6.433895248E0,2.369920015E-1,5.677099898E-2,6.844580173E-1,7.265472680E-1
6.438906092E0,2.539040148E-1,8.060199767E-2,5.242949724E-1,5.880894055E-1
6.443916877E0,2.281659991E-1,6.893300265E-2,3.440049887E-1,4.185103514E-1
6.448927646E0,1.676910073E-1,6.086299941E-2,2.103369981E-1,2.758010721E-1
6.453938644E0,9.657599777E-2,4.462999851E-2,7.060000300E-2,1.276836737E-1
6.458949430E0,5.674700066E-2,3.923200071E-2,-6.333900243E-2,9.365469125E-2
6.463960275E0,1.458100043E-2,4.271000158E-3,-2.418629974E-1,2.423397543E-1
6.468971060E0,-2.333400026E-2,-3.344200179E-2,-3.958950043E-1,3.979895695E-1
6.473982058E0,-6.240899861E-2,-5.419899896E-2,-4.731509984E-1,4.803168557E-1
6.478992820E0,-1.030019969E-1,-4.922699928E-2,-5.570499897E-1,5.686276460E-1
6.484003589E0,-1.314859986E-1,-4.189600050E-2,-5.857689977E-1,6.018049197E-1
6.489014433E0,-1.345990002E-1,-4.075200111E-2,-5.408650041E-1,5.588493259E-1
6.494025190E0,-9.447900206E-2,-3.872400150E-2,-4.799660146E-1,4.907068425E-1
6.499036188E0,-6.118199974E-2,-4.953400046E-2,-3.961910009E-1,4.039358408E-1
6.504046954E0,-5.513599887E-2,-6.361400336E-2,-3.108910024E-1,3.220868442E-1
6.509057723E0,-3.362999856E-2,-3.668899834E-2,-2.187670022E-1,2.243569938E-1
6.514068492E0,3.355500102E-2,-2.202400006E-2,-1.914719939E-1,1.956336350E-1
6.519079352E0,8.728700131E-2,-1.759899966E-2,-2.191199958E-1,2.365212844E-1
6.524090352E0,1.044420004E-1,6.970000104E-4,-2.131139934E-1,2.373313958E-1
6.529101099E0,9.759999812E-2,2.367899939E-2,-1.878899932E-1,2.130471877E-1
6.534111868E0,3.934099898E-2,-1.773599908E-2,-9.432099760E-2,1.037243002E-1
6.539122711E0,1.290199999E-2,-5.983600020E-2,1.217549965E-1,1.362757781E-1
6.544133406E0,4.876700044E-2,9.608499706E-2,1.766840070E-1,2.069487505E-1
6.549144250E0,1.198299974E-2,1.385129988E-1,1.678729951E-1,2.179696897E-1
6.554155021E0,5.882199854E-2,2.030390054E-1,3.616989851E-1,4.189403550E-1
6.559166019E0,9.002699703E-2,2.026859969E-1,5.589839816E-1,6.013730666E-1
6.564176863E0,1.446679980E-1,1.986310035E-1,6.862329841E-1,7.289024719E-1
6.569187861E0,2.210139930E-1,1.568419933E-1,6.840310097E-1,7.357615226E-1
6.574198632E0,2.815060019E-1,8.979199827E-2,6.671220064E-1,7.296300457E-1
6.579209416E0,2.263340056E-1,7.337999996E-3,6.192529798E-1,6.593596752E-1
6.584220185E0,1.030709967E-1,-1.014909968E-1,5.738700032E-1,5.918199332E-1
6.589230954E0,-2.712499909E-2,-1.568699926E-1,2.797020078E-1,3.218340773E-1
6.594241783E0,-2.107889950E-1,-2.807889879E-1,-1.647939980E-1,3.878550218E-1
6.599252555E0,-3.509669900E-1,-3.293649852E-1,-4.230560064E-1,6.408084785E-1
6.604263324E0,-4.754279852E-1,-3.452570140E-1,-5.984410048E-1,8.386690712E-1
6.609274322E0,-5.383250117E-1,-3.134100139E-1,-7.813910246E-1,9.992955461E-1
6.614285093E0,-1.051522017E0,-5.043359995E-1,-2.933233023E0,3.156566064E0
6.619295862E0,-1.737786055E0,-3.558770120E-1,-5.084681988E0,5.385214920E0
6.624306702E0,-1.507928014E0,-3.063820004E-1,-3.887068987E0,4.180552850E0
6.629317474E0,-8.250899911E-1,6.818000227E-3,-3.177716970E0,3.283093834E0
6.634328472E0,-1.685400009E-1,3.046050072E-1,-2.282985926E0,2.309375387E0
6.639339228E0,1.574289948E-1,3.410359919E-1,-1.340175033E0,1.391818434E0
6.644349997E0,2.894949913E-1,3.186880052E-1,-4.382239878E-1,6.143367628E-1
6.649360822E0,4.014410079E-1,4.428220093E-1,3.370130062E-1,6.861661469E-1
6.654371822E0,6.594690084E-1,6.333510280E-1,1.135187984E0,1.457629807E0
6.659382594E0,8.370019794E-1,7.598630190E-1,1.804157019E0,2.129071786E0
6.664393348E0,8.874830008E-1,8.047000170E-1,2.325516939E0,2.615950540E0
6.669404192E0,8.833249807E-1,8.054410219E-1,2.735652924E0,2.985430485E0
6.674414935E0,7.792530060E-1,7.830079794E-1,3.015768051E0,3.211727523E0
6.679425705E0,3.958010077E-1,6.294320226E-1,2.900413990E0,2.994201801E0
6.684436469E0,-3.780710101E-1,2.017830014E-1,2.188060045E0,2.229632443E0
6.689447467E0,-9.894269705E-1,-4.126279950E-1,1.277237058E0,1.667501752E0
6.694458247E0,-1.329730034E0,-1.006700039E0,6.154490113E-1,1.777752631E0
6.699469091E0,-1.346223950E0,-1.324205995E0,-5.914599821E-2,1.889269353E0
6.704479862E0,-1.074900985E0,-1.298673987E0,-1.004405975E0,1.962344928E0
6.709490613E0,-8.535959721E-1,-1.171573043E0,-1.956037045E0,2.434602719E0
6.714501382E0,-8.527680039E-1,-1.069926023E0,-2.831589937E0,3.144814229E0
6.719512380E0,-1.080471992E0,-9.728479981E-1,-3.505398989E0,3.794953890E0
6.724523223E0,-1.110569000E0,-6.040760279E-1,-3.508979082E0,3.729772855E0
6.729533992E0,-9.611709714E-1,-1.381559968E-1,-3.359003067E0,3.496546628E0
