"Time (s)","Linear Acceleration x (m/s^2)","Linear Acceleration y (m/s^2)","Linear Acceleration z (m/s^2)","Absolute acceleration (m/s^2)"
4.150376800E-2,-2.904535055E0,-5.026630163E-1,-1.346330047E-1,2.950782954E0
4.651545900E-2,-2.791616917E0,-4.767329991E-1,-7.107400149E-2,2.832922674E0
5.152708000E-2,-2.677370071E0,-4.540629983E-1,-1.774300076E-2,2.715658027E0
5.653854100E-2,-2.740159988E0,-4.927090108E-1,4.597400129E-2,2.784484250E0
6.155024600E-2,-2.807435036E0,-5.497009754E-1,8.708199859E-2,2.862070215E0
6.656186300E-2,-2.776923895E0,-5.749729872E-1,6.236099824E-2,2.836510030E0
7.157355300E-2,-2.714040995E0,-6.092219949E-1,1.759199984E-2,2.781632513E0
7.658501700E-2,-2.715027094E0,-6.547979712E-1,-7.451999933E-3,2.792881672E0
8.159663000E-2,-2.724641085E0,-7.184969783E-1,7.298999932E-3,2.817793503E0
8.660832700E-2,-2.664031982E0,-7.759929895E-1,4.676900059E-2,2.775143035E0
9.162001900E-2,-2.472940922E0,-7.985209823E-1,7.334399968E-2,2.599702272E0
9.663148300E-2,-1.361049056E0,-1.169800043E0,-1.108679995E-1,1.798104109E0
1.016430960E-1,-2.182231903E0,-1.265578985E0,-3.399969935E-1,2.545471312E0
1.066545600E-1,-2.626892090E0,-8.624879718E-1,-1.478960067E-1,2.768812161E0
1.116662740E-1,-2.376543999E0,-3.573440015E-1,-8.744000457E-3,2.403275384E0
1.166778910E-1,-2.008743048E0,-5.708799884E-2,3.813700005E-2,2.009915944E0
1.216893530E-1,-1.772995949E0,-1.249700040E-2,1.438899990E-2,1.773098377E0
1.267010380E-1,-1.733929038E0,-8.733899891E-2,-2.796100080E-2,1.736352449E0
1.317126560E-1,-1.771945953E0,-1.835909933E-1,-7.684600353E-2,1.783088170E0
1.367243360E-1,-1.778385997E0,-2.409919947E-1,-5.957800150E-2,1.795628980E0
1.417357990E-1,-1.736050963E0,-2.713859975E-1,-1.480599958E-2,1.757197349E0
1.467474900E-1,-1.694717050E0,-3.653649986E-1,7.036700100E-2,1.735081835E0
1.517591120E-1,-1.718935966E0,-4.850350022E-1,1.041240022E-1,1.789089606E0
1.567705740E-1,-1.880844951E0,-5.968449712E-1,1.415829957E-1,1.978344609E0
1.617822740E-1,-2.088737011E0,-6.413229704E-1,1.391589940E-1,2.189402357E0
1.667938910E-1,-2.223723888E0,-5.862169862E-1,-3.294999944E-3,2.299697620E0
1.718055860E-1,-2.177248955E0,-4.746310115E-1,-1.281999946E-1,2.232066945E0
1.768170490E-1,-2.003465891E0,-3.656989932E-1,-1.457159966E-1,2.041774836E0
1.818286630E-1,-1.856709957E0,-3.180739880E-1,-8.139000274E-3,1.883775244E0
1.868403500E-1,-1.733528018E0,-3.055990040E-1,1.031059995E-1,1.763275641E0
1.918520420E-1,-1.583979964E0,-3.177680075E-1,2.116700076E-2,1.615678519E0
1.968634920E-1,-1.445665956E0,-3.759549856E-1,-5.128800124E-2,1.494631281E0
2.018751050E-1,-1.369065046E0,-4.647119939E-1,6.107000168E-3,1.445798615E0
2.068867790E-1,-1.363783956E0,-5.294560194E-1,-1.001599990E-2,1.462986902E0
2.118982420E-1,-1.370082021E0,-5.535309911E-1,-3.227199987E-2,1.478026652E0
2.169099220E-1,-1.373743057E0,-5.842620134E-1,1.131500024E-2,1.492869759E0
2.219215400E-1,-1.351892948E0,-6.094740033E-1,1.003689989E-1,1.486319966E0
2.269330010E-1,-1.286689997E0,-6.436679959E-1,1.870599985E-1,1.450817383E0
2.319447160E-1,-1.211698055E0,-6.896809936E-1,2.108699977E-1,1.410084468E0
2.369563330E-1,-1.148151994E0,-7.237960100E-1,2.085600048E-1,1.373182778E0
2.419680230E-1,-1.113970995E0,-7.865430117E-1,2.038950026E-1,1.378823578E0
2.469794870E-1,-1.075734973E0,-8.448140025E-1,1.433749944E-1,1.375308264E0
2.519911770E-1,-1.033694983E0,-8.700699806E-1,6.593599916E-2,1.352735985E0
2.570028000E-1,-9.530659914E-1,-9.243280292E-1,2.521199919E-2,1.327912924E0
2.620142610E-1,-8.626719713E-1,-9.861249924E-1,-2.645999938E-2,1.310475319E0
2.670259520E-1,-7.904360294E-1,-1.060191989E0,-7.704500109E-2,1.324663015E0
2.720375690E-1,-7.293159962E-1,-1.093477964E0,-6.378500164E-2,1.315927204E0
2.770490310E-1,-6.790170074E-1,-1.117174029E0,-5.802299827E-2,1.308628510E0
2.820607300E-1,-6.439350247E-1,-1.123929977E0,-3.402199969E-2,1.295773285E0
2.870723470E-1,-6.332200170E-1,-1.080456972E0,-3.134299815E-2,1.252731911E0
2.920840380E-1,-6.370559931E-1,-1.013002992E0,-1.188999973E-2,1.196727526E0
2.970957300E-1,-6.389420033E-1,-9.338660240E-1,-3.655400127E-2,1.132116968E0
3.021071930E-1,-6.205750108E-1,-8.478689790E-1,-4.584399983E-2,1.051711378E0
3.071188170E-1,-6.150360107E-1,-7.786769867E-1,-3.114699945E-2,9.927624488E-1
3.121305090E-1,-6.310459971E-1,-7.380059958E-1,-2.632000018E-3,9.710194785E-1
3.171419730E-1,-6.261450052E-1,-7.067540288E-1,3.227600083E-2,9.447754045E-1
3.221536630E-1,-6.589670181E-1,-6.775540113E-1,6.870199740E-2,9.476481065E-1
3.271652990E-1,-6.936200261E-1,-6.434100270E-1,8.117999882E-2,9.495658986E-1
3.321767610E-1,-7.164009809E-1,-5.994470119E-1,1.190889999E-1,9.416736566E-1
3.371884510E-1,-6.998490095E-1,-5.461369753E-1,1.167299971E-1,8.953659163E-1
3.422000640E-1,-6.775869727E-1,-5.071190000E-1,1.587450057E-1,8.611003208E-1
3.472117540E-1,-6.474329829E-1,-4.682750106E-1,1.670989990E-1,8.163167451E-1
3.522232180E-1,-6.280030012E-1,-4.388599992E-1,2.100190073E-1,7.944141564E-1
3.572349080E-1,-5.908480287E-1,-4.261299968E-1,2.445590049E-1,7.684382044E-1
3.622465300E-1,-5.689039826E-1,-4.227859974E-1,2.824999988E-1,7.630242397E-1
3.672579920E-1,-5.171319842E-1,-4.578390121E-1,2.794080079E-1,7.450576387E-1
3.722696820E-1,-4.898340106E-1,-4.833610058E-1,2.737959921E-1,7.406345017E-1
3.772813000E-1,-4.607099891E-1,-5.134800076E-1,3.052270114E-1,7.543732106E-1
3.822929950E-1,-3.926450014E-1,-5.295159817E-1,2.959800065E-1,7.226073873E-1
3.873044580E-1,-3.237900138E-1,-5.673850179E-1,2.773720026E-1,7.097189298E-1
3.923161490E-1,-2.751640081E-1,-5.958589911E-1,2.635630071E-1,7.072684267E-1
3.973277800E-1,-2.275670022E-1,-6.267340183E-1,2.777090073E-1,7.222911898E-1
4.023392420E-1,-1.811359972E-1,-6.242250204E-1,2.819209993E-1,7.084818808E-1
4.073509320E-1,-1.543869972E-1,-6.120659709E-1,3.044610023E-1,7.008256556E-1
4.123626240E-1,-1.213369966E-1,-5.834360123E-1,2.821930051E-1,6.593581267E-1
4.173742420E-1,-1.055559963E-1,-5.381039977E-1,2.860589921E-1,6.184882599E-1
4.223857030E-1,-1.181429997E-1,-5.046709776E-1,2.827340066E-1,5.904143312E-1
4.273973790E-1,-1.604869962E-1,-4.805530012E-1,2.793299854E-1,5.785434328E-1
4.324089960E-1,-1.947329938E-1,-4.563759863E-1,2.524879873E-1,5.567316800E-1
4.374206860E-1,-2.628099918E-1,-4.537470043E-1,1.748989969E-1,5.527613362E-1
4.424320640E-1,-3.407610059E-1,-4.361160100E-1,2.036519945E-1,5.897366973E-1
4.474438310E-1,-3.680059910E-1,-4.278050065E-1,2.172719985E-1,6.046921980E-1
4.524554490E-1,-3.481859863E-1,-4.222060144E-1,1.672320068E-1,5.722394112E-1
4.574668910E-1,-3.383719921E-1,-4.241720140E-1,9.489800036E-2,5.508385725E-1
4.624785810E-1,-3.590930104E-1,-4.144710004E-1,1.267800014E-2,5.485387243E-1
4.674901990E-1,-4.094029963E-1,-4.072610140E-1,-6.993000209E-2,5.816893949E-1
4.725018790E-1,-4.351019859E-1,-3.952449858E-1,-1.040220037E-1,5.969530251E-1
4.775133430E-1,-4.392429888E-1,-3.902229965E-1,-9.580899775E-2,5.953047575E-1
4.825249560E-1,-4.316500127E-1,-3.942669928E-1,-2.089799941E-2,5.849828386E-1
4.875366240E-1,-4.220519960E-1,-3.786030114E-1,7.001599669E-2,5.712883399E-1
4.925480880E-1,-4.198000133E-1,-3.505859971E-1,1.301050037E-1,5.622009468E-1
4.975597870E-1,-4.619599879E-1,-3.029029965E-1,1.790360063E-1,5.806988439E-1
5.025714050E-1,-4.728879929E-1,-2.358810008E-1,1.984599978E-1,5.644902754E-1
5.075830760E-1,-4.721640050E-1,-1.569750011E-1,1.869769990E-1,5.315452914E-1
5.125945400E-1,-4.437940121E-1,-7.350099832E-2,1.732539982E-1,4.820502772E-1
5.176061530E-1,-4.025979936E-1,2.657200024E-2,1.875659972E-1,4.449406915E-1
5.226178610E-1,-3.626630008E-1,1.075690016E-1,2.242330015E-1,4.397453595E-1
5.276293250E-1,-3.424980044E-1,1.743749976E-1,2.522830069E-1,4.597371406E-1
5.326410150E-1,-3.229900002E-1,2.414519936E-1,2.926819921E-1,4.982814004E-1
5.376526180E-1,-2.901340127E-1,3.037829995E-1,3.055739999E-1,5.194586851E-1
5.426643080E-1,-2.468200028E-1,3.731440008E-1,3.033759892E-1,5.405493039E-1
5.476757710E-1,-2.095099986E-1,4.587979913E-1,2.329490036E-1,5.555675248E-1
5.526873850E-1,-1.573150009E-1,5.556750298E-1,1.452659965E-1,5.955039529E-1
5.576990770E-1,-9.558700025E-2,6.994220018E-1,4.099899903E-2,7.071130951E-1
5.627105360E-1,-7.826100290E-2,8.661389947E-1,-8.127599955E-2,8.734571145E-1
5.677221490E-1,-1.115000024E-1,1.041826963E0,-1.890040040E-1,1.064686896E0
5.727338410E-1,-1.307799965E-1,1.231760979E0,-2.917720079E-1,1.272583758E0
5.777455200E-1,-1.790229976E-1,1.400012016E0,-3.509680033E-1,1.454393832E0
5.827569830E-1,-2.514100075E-1,1.532191038E0,-4.262109995E-1,1.610115581E0
5.877686740E-1,-3.431679904E-1,1.635458946E0,-4.743770063E-1,1.737102121E0
5.927802910E-1,-4.638569951E-1,1.717018962E0,-5.099300146E-1,1.850228647E0
5.977919810E-1,-5.751810074E-1,1.774548054E0,-5.667060018E-1,1.949617829E0
6.028034450E-1,-6.484130025E-1,1.846423030E0,-6.140459776E-1,2.051041172E0
6.078151440E-1,-6.738680005E-1,1.951925039E0,-6.597040296E-1,2.167791237E0
6.128267620E-1,-6.633849740E-1,2.141376972E0,-6.416850090E-1,2.331809300E0
6.178382280E-1,-5.832319856E-1,2.426856041E0,-5.746899843E-1,2.561261090E0
6.228499180E-1,-4.258880019E-1,2.767767906E0,-4.659630060E-1,2.838845064E0
6.278615410E-1,-1.911569983E-1,3.137814045E0,-3.178139925E-1,3.159655632E0
6.328732310E-1,9.496399760E-2,3.486745119E0,-1.658149958E-1,3.491977133E0
6.378847140E-1,3.989900053E-1,3.754708052E0,-8.635500073E-2,3.776835019E0
6.428964040E-1,7.231270075E-1,3.908102036E0,-4.320799932E-2,3.974674970E0
6.479080210E-1,9.474899769E-1,3.997093916E0,-1.295319945E-1,4.109899703E0
6.529194880E-1,1.145851016E0,3.956988096E0,-2.471590042E-1,4.126962190E0
6.579311780E-1,1.293944955E0,3.821190119E0,-3.600679934E-1,4.050362506E0
6.629427960E-1,1.442020059E0,3.620757103E0,-5.039209723E-1,3.929788823E0
6.679544910E-1,1.465618014E0,3.365252972E0,-6.810789704E-1,3.733206704E0
6.729659550E-1,1.419703007E0,3.097707033E0,-8.603289723E-1,3.514471714E0
6.779776540E-1,1.275267005E0,2.839623928E0,-1.048969984E0,3.284829983E0
6.829893460E-1,1.108675003E0,2.595704079E0,-1.220482945E0,3.075129029E0
6.880009640E-1,1.041643977E0,2.432899952E0,-1.422819972E0,3.004736432E0
6.930124350E-1,9.834489822E-1,2.262733936E0,-1.572314978E0,2.925630044E0
6.980241250E-1,9.534850121E-1,2.125932932E0,-1.743139982E0,2.909855924E0
7.030357330E-1,1.042912006E0,1.955605030E0,-1.866191983E0,2.897365873E0
7.080471940E-1,1.094143033E0,1.747002006E0,-1.955669999E0,2.841445078E0
7.130588130E-1,1.166970968E0,1.538344026E0,-1.980208039E0,2.765781528E0
7.180705050E-1,1.239506006E0,1.302440047E0,-1.857252955E0,2.584978483E0
7.230821970E-1,1.342545986E0,1.088642001E0,-1.704249978E0,2.427352286E0
7.280936500E-1,1.482018948E0,8.941349983E-1,-1.575392008E0,2.340452421E0
7.331053400E-1,1.563578010E0,6.996759772E-1,-1.499879003E0,2.276831063E0
7.381169730E-1,1.614238977E0,5.097429752E-1,-1.501675010E0,2.262881617E0
7.431286630E-1,1.667153001E0,3.456209898E-1,-1.548300982E0,2.301323299E0
7.481401410E-1,1.726683974E0,1.879490018E-1,-1.638504982E0,2.387773220E0
7.531517540E-1,1.766957998E0,2.487099916E-2,-1.745447040E0,2.483816519E0
7.581634460E-1,1.781530023E0,-1.361760050E-1,-1.854843974E0,2.575429924E0
7.631748910E-1,1.810430050E0,-2.927379906E-1,-1.962126970E0,2.685757760E0
7.681865810E-1,1.839172006E0,-4.323309958E-1,-1.990861058E0,2.744629576E0
7.731982780E-1,1.840047002E0,-5.641530156E-1,-1.989917040E0,2.768358976E0
7.782098960E-1,1.779271960E0,-6.782749891E-1,-1.981132984E0,2.747863456E0
7.832215660E-1,1.719218016E0,-7.601169944E-1,-1.934934974E0,2.697677109E0
7.882329530E-1,1.604624033E0,-7.924810052E-1,-1.834143043E0,2.562601243E0
7.932446430E-1,1.521049976E0,-7.585020065E-1,-1.671584964E0,2.383928400E0
7.982563350E-1,1.442592978E0,-7.084029913E-1,-1.477218032E0,2.182906872E0
8.032677990E-1,1.353137016E0,-6.995930076E-1,-1.254487991E0,1.973360150E0
8.082793930E-1,1.052013040E0,-5.674039721E-1,-1.307898998E0,1.771800918E0
8.132910860E-1,8.469359875E-1,-4.578399956E-1,-1.258373976E0,1.584431473E0
8.183027730E-1,7.837349772E-1,-3.518809974E-1,-1.100096941E0,1.395805871E0
8.233142370E-1,7.539740205E-1,-2.834509909E-1,-1.036121964E0,1.312390953E0
8.283258320E-1,7.589259744E-1,-2.360450029E-1,-1.012601972E0,1.287264010E0
8.333375240E-1,6.650699973E-1,-2.066919953E-1,-8.428180218E-1,1.093335219E0
8.383489830E-1,5.821130276E-1,-2.434629947E-1,-7.050079703E-1,9.461321498E-1
8.433605960E-1,5.051490068E-1,-3.440999985E-1,-5.840579867E-1,8.454017151E-1
8.483722990E-1,4.107500017E-1,-4.773980081E-1,-4.190309942E-1,7.564465587E-1
8.533837620E-1,3.411090076E-1,-6.076099873E-1,-2.690829933E-1,7.469611161E-1
8.583954370E-1,3.047319949E-1,-7.373920083E-1,-1.799719930E-1,8.179232732E-1
8.634070550E-1,2.564179897E-1,-8.597210050E-1,-1.495919973E-1,9.095318342E-1
8.684187450E-1,2.229530066E-1,-1.000440001E0,-1.676370054E-1,1.038600214E0
8.734302090E-1,2.015929967E-1,-1.131590009E0,-1.496050060E-1,1.159101955E0
8.784418220E-1,4.830100015E-2,-1.289095998E0,-9.074400365E-2,1.293188290E0
8.834535240E-1,2.819249928E-1,-1.312659979E0,-3.650800139E-2,1.343090003E0
8.884649880E-1,2.881090045E-1,-1.400840044E0,-6.601800025E-2,1.431683626E0
8.934766780E-1,1.576649994E-1,-1.529693961E0,-1.220880002E-1,1.542636492E0
8.984883000E-1,1.627719998E-1,-1.608345985E0,-1.303700060E-1,1.621810060E0
9.034999900E-1,1.885060072E-1,-1.672698975E0,-1.099539995E-1,1.686874701E0
9.085114690E-1,1.989399940E-1,-1.729936957E0,-1.254290044E-1,1.745849774E0
9.135231590E-1,1.749339998E-1,-1.830309033E0,-1.504710019E-1,1.844796624E0
9.185347760E-1,1.714709997E-1,-1.921164036E0,-1.684470028E-1,1.936142544E0
9.235465340E-1,2.197200060E-1,-2.009674072E0,-1.650040001E-1,2.028372026E0
9.285579200E-1,6.375300139E-2,-2.184366941E0,-1.090949997E-1,2.188018533E0
9.335695250E-1,-1.915320009E-1,-2.150949955E0,-9.869100153E-2,2.161714627E0
9.385812170E-1,2.118648052E0,-1.914103031E0,-1.457629949E-1,2.858969541E0
9.435929280E-1,1.642310977E0,-2.047811985E0,8.043900132E-2,2.626250122E0
9.486043920E-1,6.685630083E-1,-2.255548954E0,-6.517000031E-3,2.352556068E0
9.536160190E-1,4.107339978E-1,-2.216806889E0,8.146200329E-2,2.256007814E0
9.586277110E-1,9.993299842E-2,-2.314526081E0,5.987099931E-2,2.317455959E0
9.636391750E-1,8.487000316E-2,-2.232871056E0,3.159999906E-4,2.234483423E0
9.686508890E-1,1.094250008E-1,-2.141721964E0,-2.800199948E-2,2.144698327E0
9.736625070E-1,1.475010067E-1,-2.055408955E0,-2.527499944E-2,2.060849665E0
9.786741970E-1,1.729280055E-1,-2.019392967E0,-3.370000049E-3,2.026786473E0
9.836856610E-1,2.337429971E-1,-1.973827958E0,6.424999796E-3,1.987630216E0
9.886973510E-1,2.319400012E-1,-1.954597950E0,2.569399960E-2,1.968478979E0
9.937089680E-1,2.608489990E-1,-1.944955945E0,4.241700098E-2,1.962828324E0
9.987206640E-1,2.583769858E-1,-1.940104961E0,7.580000162E-2,1.958701501E0
1.003732127E0,4.136140049E-1,-1.906559944E0,1.284050047E-1,1.955130484E0
1.008743741E0,4.590910077E-1,-1.923246026E0,1.642830074E-1,1.984093933E0
1.013755433E0,4.138360023E-1,-1.947110057E0,2.290180027E-1,2.003733280E0
1.018766901E0,3.974350095E-1,-1.963804007E0,2.963530123E-1,2.025414987E0
1.023778592E0,3.955410123E-1,-1.963768959E0,3.424820006E-1,2.032273391E0
1.028790209E0,3.961339891E-1,-1.954174042E0,3.744730055E-1,2.028780016E0
1.033801913E0,3.824090064E-1,-1.937428951E0,4.091970026E-1,2.016757243E0
1.038813377E0,3.639970124E-1,-1.911128998E0,4.394159913E-1,1.994490984E0
1.043825067E0,3.840630054E-1,-1.865697026E0,4.722720087E-1,1.962490926E0
1.048836671E0,4.259200096E-1,-1.827445030E0,4.933519959E-1,1.940195708E0
1.053848361E0,4.514079988E-1,-1.777217984E0,4.930289984E-1,1.898776063E0
1.058859844E0,4.797819853E-1,-1.715008020E0,4.689109921E-1,1.841553904E0
1.063871457E0,4.966109991E-1,-1.669530034E0,4.592649937E-1,1.801354311E0
1.068883149E0,4.875290096E-1,-1.628819942E0,4.185679853E-1,1.750982038E0
1.073894618E0,4.309250116E-1,-1.559386969E0,3.660709858E-1,1.658732061E0
1.078906231E0,3.362360001E-1,-1.485152006E0,4.690879881E-1,1.593353278E0
1.083917924E0,2.990460098E-1,-1.401337981E0,5.648919940E-1,1.540220640E0
1.088929616E0,3.050790131E-1,-1.307945967E0,5.913090110E-1,1.467461142E0
1.093941308E0,2.539539933E-1,-1.240856051E0,5.770409703E-1,1.391830684E0
1.098952762E0,2.245160043E-1,-1.161798954E0,5.580509901E-1,1.308283285E0
1.103964375E0,2.169010043E-1,-1.101883054E0,5.727509856E-1,1.260649040E0
1.108976068E0,1.862699986E-1,-1.035264015E0,5.927910209E-1,1.207422581E0
1.113987531E0,1.474979967E-1,-9.780179858E-1,6.266620159E-1,1.170888604E0
1.118999144E0,1.633040011E-1,-9.063060284E-1,6.764439940E-1,1.142643991E0
1.124010837E0,1.857199967E-1,-8.513240218E-1,6.976010203E-1,1.116195185E0
1.129022300E0,2.098110020E-1,-7.724670172E-1,7.050459981E-1,1.066684493E0
1.134033991E0,2.680009902E-1,-6.841719747E-1,7.084590197E-1,1.020700742E0
1.139045608E0,2.898109853E-1,-5.840499997E-1,6.846690178E-1,9.454504076E-1
1.144057308E0,2.810299993E-1,-4.553470016E-1,6.484580040E-1,8.407238163E-1
1.149068772E0,2.820889950E-1,-3.387599885E-1,6.045550108E-1,7.482107270E-1
1.154080370E0,2.509360015E-1,-2.127290070E-1,5.555520058E-1,6.456473793E-1
1.159092063E0,1.954579949E-1,-7.244700193E-2,4.944260120E-1,5.365719684E-1
1.164103531E0,1.278579980E-1,8.455699682E-2,4.587860107E-1,4.837170216E-1
1.169115222E0,7.392799854E-2,2.414949983E-1,4.175800085E-1,4.880145968E-1
1.174126844E0,2.854399942E-2,4.152149856E-1,4.199419916E-1,5.912440448E-1
1.179138534E0,-3.186700121E-2,6.177210212E-1,4.251590073E-1,7.505697484E-1
1.184150007E0,-3.706999868E-2,8.130180240E-1,4.356049895E-1,9.231057355E-1
1.189161697E0,-6.297899783E-2,1.021628976E0,4.528369904E-1,1.119264695E0
1.194173399E0,-9.543099999E-2,1.223145008E0,5.032809973E-1,1.326077882E0
1.199185017E0,-1.582520008E-1,1.422369957E0,6.011769772E-1,1.552286619E0
1.204196478E0,-2.083030045E-1,1.624124050E0,7.176219821E-1,1.787778057E0
1.209208082E0,-2.502090037E-1,1.814079046E0,8.309289813E-1,2.010952586E0
1.214219774E0,-3.437789977E-1,1.987473965E0,9.385359883E-1,2.224654256E0
1.219231238E0,-3.859939873E-1,2.141947985E0,1.047498941E0,2.415406086E0
1.224242919E0,-4.126900136E-1,2.248804092E0,1.148120999E0,2.558439900E0
1.229254536E0,-4.430409968E-1,2.298496962E0,1.211534023E0,2.635751941E0
1.234266231E0,-4.460099936E-1,2.291045904E0,1.268725038E0,2.656591702E0
1.239277923E0,-4.312280118E-1,2.236042023E0,1.321964979E0,2.633141267E0
1.244289359E0,-4.083299935E-1,2.104753017E0,1.359413028E0,2.538645786E0
1.249300972E0,-3.319489956E-1,1.959409952E0,1.366683006E0,2.411907945E0
1.254312673E0,-2.860319912E-1,1.773674011E0,1.329468966E0,2.234999223E0
1.259324137E0,-1.605709940E-1,1.583449006E0,1.326678991E0,2.071996850E0
1.264335827E0,-8.719199896E-2,1.374405026E0,1.279211998E0,1.879620961E0
1.269347435E0,-7.580000162E-2,1.201581955E0,1.179752946E0,1.685633960E0
1.274358896E0,-2.603200078E-2,1.057827950E0,1.013715982E0,1.465366073E0
1.279370601E0,-5.288499966E-2,9.886379838E-1,8.000689745E-1,1.272914864E0
1.284382219E0,-1.063319966E-1,9.892129898E-1,5.292400122E-1,1.126917842E0
1.289393909E0,-2.701979876E-1,1.121752977E0,2.636289895E-1,1.183569575E0
1.294405596E0,-4.729039967E-1,1.405321002E0,1.233979985E-1,1.487881842E0
1.299417060E0,-6.140249968E-1,1.806319952E0,1.283189952E-1,1.912141268E0
1.304428659E0,-7.794730067E-1,2.243282080E0,2.889060080E-1,2.392354351E0
1.309440352E0,-9.547129869E-1,2.663464069E0,5.173199773E-1,2.876306259E0
1.314451815E0,-9.767600298E-1,3.016571045E0,7.469969988E-1,3.257570497E0
1.319463506E0,-8.404089808E-1,3.218898058E0,8.940870166E-1,3.444848844E0
1.324475123E0,-6.361430287E-1,3.220295906E0,7.453060150E-1,3.366075568E0
1.329486574E0,-3.376959860E-1,3.051976919E0,3.645719886E-1,3.092169858E0
1.334498265E0,-1.293800026E-1,2.771507025E0,-1.699610054E-1,2.779726087E0
1.339509896E0,-1.096189991E-1,2.457892895E0,-6.409639716E-1,2.542457201E0
1.344521587E0,-2.118709981E-1,2.192434072E0,-9.142929912E-1,2.384866486E0
1.349533036E0,-3.456059992E-1,1.958251953E0,-1.030161023E0,2.239514669E0
1.354544726E0,-5.444949865E-1,1.721660972E0,-1.023571968E0,2.075642278E0
1.359556329E0,-7.441099882E-1,1.489649057E0,-8.888180256E-1,1.887525224E0
1.364568019E0,-8.703389764E-1,1.209432006E0,-6.946910024E-1,1.644022901E0
1.369579483E0,-8.771280050E-1,8.969630003E-1,-5.527250171E-1,1.370912508E0
1.374591164E0,-7.987290025E-1,5.267120004E-1,-5.880699754E-1,1.123040447E0
1.379602781E0,-6.676750183E-1,1.288200021E-1,-7.775750160E-1,1.032960516E0
1.384614233E0,-5.391250253E-1,-2.589479983E-1,-1.058758020E0,1.216009212E0
1.389625923E0,-4.064899981E-1,-6.080030203E-1,-1.349992037E0,1.535376270E0
1.394637541E0,-3.192020059E-1,-8.936629891E-1,-1.530136943E0,1.800511739E0
1.399649021E0,-3.917379975E-1,-1.126055002E0,-1.705924988E0,2.081258896E0
1.404660942E0,-5.209149718E-1,-1.253368974E0,-1.812338948E0,2.264256756E0
1.409672406E0,-6.828609705E-1,-1.301959991E0,-1.818145990E0,2.338173169E0
1.414684096E0,-8.440020084E-1,-1.262295961E0,-1.720715046E0,2.294905391E0
1.419695714E0,-9.776809812E-1,-1.143947005E0,-1.622684002E0,2.213047271E0
1.424707180E0,-1.062860966E0,-1.015264034E0,-1.513226986E0,2.109571142E0
1.429718794E0,-1.175462008E0,-8.757640123E-1,-1.376561046E0,2.010868929E0
1.434730486E0,-1.268360019E0,-7.146120071E-1,-1.405737042E0,2.023735183E0
1.439741973E0,-1.237615943E0,-5.279949903E-1,-1.500759959E0,2.015627046E0
1.444753664E0,-1.118932009E0,-3.611859977E-1,-1.488123059E0,1.896569114E0
1.449765276E0,-9.631980062E-1,-2.188230008E-1,-1.415259004E0,1.725859772E0
1.454776966E0,-7.997949719E-1,-5.041399971E-2,-1.246626973E0,1.481989332E0
1.459788645E0,-6.333780289E-1,1.059110016E-1,-1.024286985E0,1.208945283E0
1.464800108E0,-5.105950236E-1,2.762419879E-1,-8.702830076E-1,1.046140252E0
1.469811707E0,-4.089199901E-1,3.963530064E-1,-6.640509963E-1,8.747999712E-1
1.474823399E0,-3.623589873E-1,4.688799977E-1,-4.767360091E-1,7.605456662E-1
1.479834863E0,-2.525390089E-1,4.955010116E-1,-3.917180002E-1,6.802500975E-1
1.484846553E0,-1.483590007E-1,4.617440104E-1,-3.622089922E-1,6.053208061E-1
1.489858170E0,-3.549899906E-2,3.986540139E-1,-3.591719866E-1,5.377636262E-1
1.494869861E0,1.321640015E-1,3.180370033E-1,-3.286780119E-1,4.760715222E-1
1.499881344E0,3.784990013E-1,1.865009964E-1,-1.882089972E-1,4.620246122E-1
1.504892958E0,5.273680091E-1,-3.099600039E-2,-2.020999976E-2,5.286645564E-1
1.509904650E0,6.094380021E-1,-2.816450000E-1,8.829499781E-2,6.771518228E-1
1.514916117E0,6.983469725E-1,-5.225790143E-1,1.644849926E-1,8.875993651E-1
1.519927731E0,7.634710073E-1,-7.610489726E-1,2.095630020E-1,1.098180390E0
1.524939423E0,8.198180199E-1,-9.835039973E-1,2.384240031E-1,1.302393068E0
1.529950887E0,8.799650073E-1,-1.172778010E0,2.634049952E-1,1.489674081E0
1.534962577E0,9.225710034E-1,-1.355159998E0,2.701640129E-1,1.661500668E0
1.539974194E0,9.381849766E-1,-1.545001984E0,2.803019881E-1,1.829150454E0
1.544985885E0,9.173120260E-1,-1.715965033E0,3.129749894E-1,1.970774135E0
1.549997577E0,8.863620162E-1,-1.889574051E0,3.179579973E-1,2.111214107E0
1.555009041E0,8.168349862E-1,-2.032272100E0,3.502050042E-1,2.218105685E0
1.560020731E0,7.541949749E-1,-2.151247025E0,3.475050032E-1,2.305956103E0
1.565032348E0,6.865929961E-1,-2.251250982E0,3.433459997E-1,2.378534718E0
1.570044049E0,6.045349836E-1,-2.329876900E0,3.305169940E-1,2.429615278E0
1.575055512E0,5.536710024E-1,-2.391880035E0,2.707380056E-1,2.470008249E0
1.580067135E0,5.005360246E-1,-2.439630032E0,1.806779951E-1,2.496993300E0
1.585078827E0,4.427950084E-1,-2.473107100E0,7.463499904E-2,2.513542625E0
1.590090290E0,4.140639901E-1,-2.477905989E0,-1.885199919E-2,2.512334069E0
1.595101986E0,3.880270123E-1,-2.461193085E0,-8.787299693E-2,2.493142199E0
1.600113603E0,3.743610084E-1,-2.437283039E0,-1.206329986E-1,2.468814918E0
1.605125293E0,3.490970135E-1,-2.403795004E0,-1.625349969E-1,2.434443832E0
1.610136747E0,3.337129951E-1,-2.336798906E0,-1.730179936E-1,2.366839394E0
1.615148360E0,3.234179914E-1,-2.236289024E0,-1.616549939E-1,2.265330028E0
1.620160063E0,3.205069900E-1,-2.123800039E0,-1.333349943E-1,2.151982704E0
1.625171526E0,3.057850003E-1,-1.975417018E0,-1.167619973E-1,2.002351174E0
1.630183145E0,3.173809946E-1,-1.834221959E0,-5.220900103E-2,1.862210158E0
1.635194837E0,3.624809980E-1,-1.669126034E0,5.406000186E-3,1.708040812E0
1.640206529E0,3.788670003E-1,-1.525588036E0,6.326399744E-2,1.573201002E0
1.645217974E0,3.952519894E-1,-1.391638994E0,1.284819990E-1,1.452374211E0
1.650229587E0,4.044440091E-1,-1.276849031E0,1.723300070E-1,1.350413284E0
1.655241270E0,4.184559882E-1,-1.181221962E0,2.331530005E-1,1.274657232E0
1.660252733E0,4.038330019E-1,-1.085589051E0,2.677960098E-1,1.188822688E0
1.665264347E0,3.941319883E-1,-1.018656015E0,3.241229951E-1,1.139322526E0
1.670276053E0,3.534049988E-1,-9.811019897E-1,4.004580081E-1,1.117059902E0
1.675287745E0,3.164690137E-1,-9.550250173E-1,4.561170042E-1,1.104657477E0
1.680299224E0,2.971079946E-1,-9.261770248E-1,5.127589703E-1,1.099544816E0
1.685310837E0,2.831780016E-1,-8.899250031E-1,5.424960256E-1,1.080026958E0
1.690322529E0,2.885090113E-1,-8.584060073E-1,5.530840158E-1,1.061131590E0
1.695334206E0,2.984670103E-1,-8.269090056E-1,5.542619824E-1,1.039262914E0
1.700345592E0,2.735480070E-1,-7.883200049E-1,5.116500258E-1,9.788067691E-1
1.705357278E0,2.262600064E-1,-7.300130129E-1,5.795509815E-1,9.591620977E-1
1.710368970E0,2.150029987E-1,-6.688169837E-1,6.662960052E-1,9.682421256E-1
1.715380430E0,2.619439960E-1,-6.005849838E-1,6.809030175E-1,9.449581467E-1
1.720392120E0,2.913700044E-1,-5.682610273E-1,6.784470081E-1,9.317228223E-1
1.725403737E0,2.574760020E-1,-5.476229787E-1,6.780859828E-1,9.088373993E-1
1.730415423E0,2.317110002E-1,-5.386379957E-1,6.888920069E-1,9.046508029E-1
1.735426886E0,2.114679962E-1,-5.389569998E-1,6.966289878E-1,9.058064405E-1
1.740438495E0,1.594370008E-1,-5.579149723E-1,7.222629786E-1,9.264734663E-1
1.745450187E0,1.021170020E-1,-5.979390144E-1,7.350569963E-1,9.530308153E-1
1.750461650E0,7.203199714E-2,-6.306779981E-1,7.075589895E-1,9.505698657E-1
1.755473346E0,8.020199835E-2,-6.898679733E-1,6.546559930E-1,9.544237268E-1
1.760484963E0,1.347679943E-1,-7.375320196E-1,5.888800025E-1,9.533601364E-1
1.765496629E0,1.949139982E-1,-7.951220274E-1,5.359789729E-1,9.785110958E-1
1.770508093E0,2.604599893E-1,-8.337270021E-1,5.234900117E-1,1.018323088E0
1.775519783E0,3.659830093E-1,-8.651949763E-1,5.570729971E-1,1.092170424E0
1.780531401E0,4.755719900E-1,-8.846549988E-1,6.028980017E-1,1.171438938E0
1.785542862E0,6.307060122E-1,-9.134610295E-1,6.973930001E-1,1.310937879E0
1.790554562E0,7.231690288E-1,-9.119480252E-1,5.863429904E-1,1.303234725E0
1.795566179E0,7.779430151E-1,-8.218939900E-1,5.942929983E-1,1.278236767E0
1.800577869E0,8.169900179E-1,-7.389649749E-1,6.017140150E-1,1.255229732E0
1.805589328E0,8.754150271E-1,-6.419770122E-1,5.668470263E-1,1.224663834E0
1.810601018E0,8.807070255E-1,-5.372480154E-1,6.445310116E-1,1.216429414E0
1.815612627E0,8.832010031E-1,-4.344730079E-1,7.110559940E-1,1.214253447E0
1.820624317E0,8.112580180E-1,-4.573439956E-1,4.572870135E-1,1.037503983E0
1.825635780E0,7.365409732E-1,-5.243989825E-1,2.293809950E-1,9.327928703E-1
1.830647461E0,6.176289916E-1,-6.690030098E-1,-6.178000011E-3,9.105321335E-1
1.835659078E0,4.814159870E-1,-8.168439865E-1,-2.115910053E-1,9.714763015E-1
1.840670550E0,3.486300111E-1,-9.728400111E-1,-3.931080103E-1,1.105664723E0
1.845682240E0,2.134249955E-1,-1.133821011E0,-5.450019836E-1,1.275980985E0
1.850693951E0,5.947899818E-2,-1.266217947E0,-6.673550010E-1,1.432553084E0
1.855705569E0,-7.707200199E-2,-1.346057057E0,-7.124130130E-1,1.524907209E0
1.860717025E0,-1.695100069E-1,-1.406810999E0,-6.418300271E-1,1.555569546E0
1.865728639E0,-5.695260167E-1,-1.364678979E0,-4.557749927E-1,1.547397636E0
1.870740331E0,-3.203929961E-1,-1.114459038E0,-2.833209932E-1,1.193709095E0
1.875752023E0,-1.700289994E-1,-9.516019821E-1,-1.777050048E-1,9.828709283E-1
1.880763487E0,-2.551150024E-1,-7.590990067E-1,-5.051599815E-2,8.024131308E-1
1.885775100E0,-2.169259936E-1,-4.798440039E-1,1.212219968E-1,5.403720268E-1
1.890786808E0,-1.871639937E-1,-1.643050015E-1,2.738220096E-1,3.701418471E-1
1.895798500E0,-1.473100036E-1,1.703680009E-1,3.824929893E-1,4.438765366E-1
1.900809887E0,-1.444350034E-1,5.051230192E-1,4.902819991E-1,7.186008443E-1
1.905821577E0,-1.684260070E-1,7.920579910E-1,5.761269927E-1,9.938035484E-1
1.910833269E0,-2.286069989E-1,1.047693968E0,6.845589876E-1,1.272220428E0
1.915844962E0,-3.062619865E-1,1.224342942E0,7.711979747E-1,1.479039675E0
1.920856425E0,-3.920150101E-1,1.307656050E0,8.310970068E-1,1.598237263E0
1.925868043E0,-5.001779795E-1,1.326369047E0,8.905090094E-1,1.674048732E0
1.930879736E0,-5.494869947E-1,1.311655045E0,9.131669998E-1,1.690044048E0
1.935891199E0,-5.398290157E-1,1.275532007E0,9.084339738E-1,1.656396557E0
1.940902813E0,-5.093539953E-1,1.206176996E0,8.302620053E-1,1.550367517E0
1.945914505E0,-4.866850078E-1,1.139559031E0,7.549039721E-1,1.450977976E0
1.950925983E0,-4.475840032E-1,1.087785959E0,6.866580248E-1,1.362023853E0
1.955937673E0,-3.941670060E-1,1.041373014E0,7.018510103E-1,1.316214354E0
1.960949290E0,-3.285200000E-1,9.931910038E-1,7.310410142E-1,1.276234588E0
1.965960776E0,-2.574850023E-1,9.696599841E-1,6.519719958E-1,1.196497595E0
1.970972466E0,-1.163289994E-1,9.899950027E-1,3.950409889E-1,1.072231283E0
1.975984060E0,1.283839941E-1,1.138008952E0,-7.347100228E-2,1.147582160E0
1.980995750E0,4.358789921E-1,1.502341032E0,-6.582840085E-1,1.697161427E0
1.986007204E0,7.750809789E-1,2.097378016E0,-1.196663976E0,2.536089457E0
1.991018895E0,9.618449807E-1,2.865622044E0,-1.623481035E0,3.431126074E0
1.996030512E0,1.041950941E0,3.716015100E0,-1.645936012E0,4.195656724E0
2.001041974E0,9.896640182E-1,4.555069923E0,-1.222241998E0,4.818918175E0
2.006053664E0,6.572719812E-1,5.145635128E0,-4.490169883E-1,5.206840077E0
2.011065281E0,4.560810030E-1,5.367554188E0,5.177800059E-1,5.411722829E0
2.016076967E0,5.194669962E-1,5.280132771E0,1.124717951E0,5.423526390E0
2.021088430E0,6.167910099E-1,4.973928928E0,1.233914018E0,5.161680340E0
2.026100116E0,8.000550270E-1,4.611577034E0,9.840310216E-1,4.782786619E0
2.031111733E0,9.086890221E-1,4.308018208E0,6.209560037E-1,4.446383134E0
2.036123205E0,8.258659840E-1,4.053864002E0,3.092359900E-1,4.148673869E0
2.041134895E0,6.164320111E-1,3.758244991E0,2.236500010E-2,3.808529117E0
2.046146507E0,2.826029956E-1,3.399564028E0,-2.443190068E-1,3.420028042E0
2.051158198E0,8.162000217E-3,2.970535040E0,-4.858779907E-1,3.010020343E0
2.056169661E0,-1.765699983E-1,2.490255117E0,-7.408469915E-1,2.604112474E0
2.061181360E0,-1.718370020E-1,2.020884991E0,-9.424279928E-1,2.236442403E0
2.066192978E0,6.978199631E-2,1.605625987E0,-1.012402058E0,1.899437354E0
2.071204444E0,5.171520114E-1,1.254269004E0,-9.947299957E-1,1.682297447E0
2.076216135E0,9.821460247E-1,9.768769741E-1,-8.983209729E-1,1.651023927E0
2.081227827E0,1.434666038E0,7.676619887E-1,-8.804339767E-1,1.850063663E0
2.086239444E0,1.840289950E0,6.850759983E-1,-1.118020058E0,2.259638262E0
2.091251135E0,2.342694044E0,6.502630115E-1,-1.362404943E0,2.786970505E0
2.096262827E0,2.767586946E0,5.642669797E-1,-1.490301967E0,3.193577098E0
2.101274224E0,2.926438093E0,4.261609912E-1,-1.551069021E0,3.339381412E0
2.106285914E0,3.010168076E0,2.834160030E-1,-1.711318016E0,3.474197148E0
2.111297378E0,3.081487894E0,1.622859985E-1,-1.890805006E0,3.618984382E0
2.116309005E0,2.996691942E0,1.360700000E-2,-1.948940039E0,3.574732860E0
2.121320774E0,2.727685928E0,-1.934490055E-1,-1.988533020E0,3.381117657E0
2.126332402E0,2.389622927E0,-3.944750130E-1,-2.049377918E0,3.172673655E0
2.131343863E0,1.976058006E0,-5.797020197E-1,-2.065828085E0,2.916934239E0
2.136355477E0,1.534325957E0,-7.201640010E-1,-2.016407967E0,2.634139977E0
2.141367145E0,1.140192986E0,-8.136550188E-1,-1.963930964E0,2.412280947E0
2.146378608E0,8.042500019E-1,-8.745020032E-1,-1.864668965E0,2.211009310E0
2.151390299E0,5.081639886E-1,-9.201819897E-1,-1.785562038E0,2.072003216E0
2.156401916E0,1.875420064E-1,-9.561520219E-1,-1.649485946E0,1.915777278E0
2.161413378E0,-1.267980039E-1,-9.896460176E-1,-1.446567059E0,1.757280066E0
2.166425053E0,-3.948250115E-1,-1.039824963E0,-1.210302949E0,1.643762748E0
2.171436670E0,-5.930410028E-1,-1.075621963E0,-1.050601006E0,1.616299078E0
2.176448375E0,-7.459179759E-1,-1.125781059E0,-9.554610252E-1,1.654292112E0
2.181459838E0,-8.515020013E-1,-1.168836951E0,-9.269049764E-1,1.717669442E0
2.186471529E0,-9.030169845E-1,-1.202429056E0,-9.313439727E-1,1.768806633E0
2.191483127E0,-9.341030121E-1,-1.217028975E0,-9.613990188E-1,1.810523692E0
2.196494817E0,-9.137849808E-1,-1.227030039E0,-1.007274985E0,1.831722851E0
2.201506281E0,-8.757089972E-1,-1.227635980E0,-1.093040943E0,1.862443247E0
2.206517986E0,-8.101599813E-1,-1.235581040E0,-1.182867050E0,1.892668529E0
2.211529604E0,-7.028539777E-1,-1.231703997E0,-1.264925957E0,1.900298957E0
2.216541079E0,-5.800520182E-1,-1.208778024E0,-1.284471989E0,1.856737177E0
2.221552769E0,-4.106180072E-1,-1.181136012E0,-1.268000960E0,1.780875027E0
2.226564397E0,-2.375089973E-1,-1.165477991E0,-1.210968018E0,1.697407733E0
2.231576087E0,-5.824400112E-2,-1.166560054E0,-1.123178959E0,1.620427628E0
2.236587551E0,1.343580037E-1,-1.198750019E0,-1.028452992E0,1.585171675E0
2.241599164E0,2.901450098E-1,-1.238093972E0,-9.628170133E-1,1.595016430E0
2.246610856E0,4.570370018E-1,-1.279798985E0,-9.143720269E-1,1.637939091E0
2.251622324E0,6.494799852E-1,-1.328647971E0,-9.070010185E-1,1.734871906E0
2.256634014E0,8.174560070E-1,-1.382228017E0,-9.407740235E-1,1.861140612E0
2.261645628E0,9.777969718E-1,-1.435791969E0,-9.699789882E-1,1.989584061E0
2.266657089E0,1.106838942E0,-1.484524012E0,-9.970700145E-1,2.103105465E0
2.271668780E0,1.240650058E0,-1.511675000E0,-1.026815057E0,2.208783157E0
2.276680382E0,1.343569994E0,-1.522034049E0,-1.051960945E0,2.286567254E0
2.281692072E0,1.384686947E0,-1.532341957E0,-1.065376043E0,2.323888106E0
2.286703770E0,1.368857980E0,-1.547356009E0,-1.086325049E0,2.334134722E0
2.291715233E0,1.305750966E0,-1.552713990E0,-1.067008018E0,2.292250517E0
2.296726923E0,1.221624017E0,-1.555598974E0,-1.036136031E0,2.232897508E0
2.301738541E0,1.099702001E0,-1.544054031E0,-1.010401964E0,2.148106020E0
2.306750002E0,9.878810048E-1,-1.510920048E0,-9.681540132E-1,2.048440984E0
2.311761597E0,8.430730104E-1,-1.460980058E0,-9.405030012E-1,1.931264023E0
2.316773289E0,6.963369846E-1,-1.420582056E0,-8.555300236E-1,1.798574490E0
2.321784981E0,5.452889800E-1,-1.365795970E0,-7.515169978E-1,1.651519452E0
2.326796435E0,4.041689932E-1,-1.318184018E0,-6.641809940E-1,1.530391477E0
2.331808048E0,2.752420008E-1,-1.246655941E0,-5.695289969E-1,1.397952958E0
2.336819755E0,1.775719970E-1,-1.167979002E0,-4.937680066E-1,1.280434929E0
2.341831218E0,1.230380014E-1,-1.086943030E0,-4.129709899E-1,1.169242721E0
2.346842813E0,7.095199823E-2,-1.001163960E0,-3.175100088E-1,1.052699418E0
2.351854505E0,3.544899821E-2,-9.277859926E-1,-2.118189931E-1,9.523186260E-1
2.356865969E0,4.272900149E-2,-8.615360260E-1,-1.783429980E-1,8.808384169E-1
2.361877664E0,5.671599880E-2,-7.954220176E-1,-1.846459955E-1,8.185395740E-1
2.366889281E0,6.565900147E-2,-7.266359925E-1,-1.044230014E-1,7.370312974E-1
2.371900972E0,1.162000000E-1,-6.817709804E-1,-7.959199697E-2,6.961673618E-1
2.376912435E0,2.094040066E-1,-6.277819872E-1,-1.454470009E-1,6.775803211E-1
2.381924063E0,3.161239922E-1,-5.982570052E-1,-2.391809970E-1,7.176721898E-1
2.386935755E0,3.966670036E-1,-5.955529809E-1,-3.439199924E-1,7.939200376E-1
2.391947209E0,4.471069872E-1,-5.860679746E-1,-4.362280071E-1,8.565484242E-1
2.396958823E0,4.916029871E-1,-5.959240198E-1,-4.910129905E-1,9.153647858E-1
2.401970505E0,5.141000152E-1,-5.913159847E-1,-4.816649854E-1,9.197578907E-1
2.406981969E0,5.152710080E-1,-6.005160213E-1,-3.683730066E-1,8.728243669E-1
2.411993659E0,5.051360130E-1,-6.164190173E-1,-2.678749859E-1,8.407685797E-1
2.417005286E0,4.724310040E-1,-6.295419931E-1,-1.890860051E-1,8.094860666E-1
2.422016748E0,4.063090086E-1,-6.328470111E-1,-1.428039968E-1,7.654902556E-1
2.427028438E0,3.239850104E-1,-6.502919793E-1,-1.049330011E-1,7.340687162E-1
2.432040056E0,2.468239963E-1,-6.459500194E-1,-5.187899992E-2,6.934442611E-1
2.437051746E0,1.700289994E-1,-6.509259939E-1,1.940999995E-3,6.727691117E-1
2.442063195E0,1.143620014E-1,-6.557369828E-1,4.035399854E-2,6.668568836E-1
2.447074885E0,6.287600100E-2,-6.460499763E-1,8.026000112E-2,6.540455880E-1
2.452086502E0,2.229500003E-2,-6.339020133E-1,1.054610014E-1,6.430014404E-1
2.457098193E0,-1.237099990E-2,-6.288899779E-1,1.280429959E-1,6.419117188E-1
2.462109656E0,-2.978100069E-2,-6.310330033E-1,1.433610022E-1,6.477977588E-1
2.467121265E0,-5.379800126E-2,-6.235889792E-1,1.562590003E-1,6.451157378E-1
2.472132957E0,-6.799300015E-2,-6.089490056E-1,1.690549999E-1,6.356268815E-1
2.477144420E0,-6.345000118E-2,-6.134669781E-1,1.651889980E-1,6.384786926E-1
2.482156106E0,-4.771000147E-2,-6.203730106E-1,1.659719944E-1,6.439608835E-1
2.487167723E0,-1.411100011E-2,-6.392689943E-1,1.548469961E-1,6.579069536E-1
2.492179413E0,4.596199840E-2,-6.485490203E-1,1.598020047E-1,6.695259649E-1
2.497191092E0,1.154939979E-1,-6.531410217E-1,1.316750050E-1,6.762176904E-1
2.502202478E0,1.711480021E-1,-6.337929964E-1,1.247460023E-1,6.682415477E-1
2.507214183E0,2.109960020E-1,-6.048520207E-1,1.150949970E-1,6.508549287E-1
2.512225646E0,2.240519971E-1,-5.758919716E-1,9.810700268E-2,6.256803052E-1
2.517237255E0,1.996199936E-1,-5.371739864E-1,1.204790026E-1,5.855930529E-1
2.522248947E0,1.527920067E-1,-5.054259896E-1,1.438709944E-1,5.472656497E-1
2.527260411E0,1.074360013E-1,-4.805479944E-1,1.962320060E-1,5.300715701E-1
2.532272116E0,6.590399891E-2,-4.746029973E-1,2.233030051E-1,5.286355779E-1
2.537283733E0,4.432100058E-2,-4.637300074E-1,2.446819991E-1,5.261930744E-1
2.542295424E0,2.593299933E-2,-4.695920050E-1,2.373860031E-1,5.268218732E-1
2.547306906E0,5.249499902E-2,-4.683499932E-1,2.163109928E-1,5.185536488E-1
2.552318596E0,9.947100282E-2,-4.720320106E-1,1.818040013E-1,5.155205081E-1
2.557330219E0,1.316410005E-1,-4.615570009E-1,1.320289969E-1,4.977909944E-1
2.562341909E0,1.540600061E-1,-4.440680146E-1,9.063100070E-2,4.786907826E-1
2.567353373E0,1.786399931E-1,-3.786909878E-1,9.926600009E-2,4.303171507E-1
2.572364995E0,2.029580027E-1,-2.964360118E-1,1.332989931E-1,3.831903985E-1
2.577376687E0,2.223120034E-1,-1.924770027E-1,1.829169989E-1,3.463071641E-1
2.582388166E0,2.484070063E-1,-7.159300148E-2,2.384839952E-1,3.517189426E-1
2.587399856E0,2.299199998E-1,3.995300084E-2,3.045200109E-1,3.836559470E-1
2.592411474E0,2.353489995E-1,1.613080055E-1,3.785510063E-1,4.740361680E-1
2.597422935E0,2.337519974E-1,2.732869983E-1,4.441969991E-1,5.715214376E-1
2.602434626E0,2.299879938E-1,3.543879986E-1,5.108140111E-1,6.628848201E-1
2.607446248E0,2.053270042E-1,4.524950087E-1,5.854880214E-1,7.679239121E-1
2.612457938E0,1.417510062E-1,5.149760246E-1,6.515510082E-1,8.425036321E-1
2.617469402E0,7.522899657E-2,5.608270168E-1,6.813049912E-1,8.856426118E-1
2.622481015E0,5.697099864E-2,5.923600197E-1,6.847370267E-1,9.071939613E-1
2.627492708E0,6.938099861E-2,5.877569914E-1,6.133490205E-1,8.523315228E-1
2.632504171E0,6.528200209E-2,5.470269918E-1,5.268840194E-1,7.623037711E-1
2.637515861E0,5.436300114E-2,4.678730071E-1,4.510419965E-1,6.521498058E-1
2.642527493E0,5.536900088E-2,3.504590094E-1,3.991169930E-1,5.340239860E-1
2.647539183E0,6.563299894E-2,2.306080014E-1,3.307850063E-1,4.085418721E-1
2.652550642E0,1.034509987E-1,1.036479995E-1,2.811850011E-1,3.170331556E-1
2.657562255E0,1.262969971E-1,-1.614500023E-2,2.102030069E-1,2.457578007E-1
2.662573733E0,1.576900035E-1,-1.263760030E-1,1.392749995E-1,2.454272944E-1
2.667585423E0,1.904859990E-1,-2.151059955E-1,5.901600048E-2,2.933230189E-1
2.672597040E0,2.015160024E-1,-2.584840059E-1,-3.722300008E-2,3.298609287E-1
2.677608492E0,2.006680071E-1,-2.735669911E-1,-1.931210011E-1,3.903873317E-1
2.682620413E0,1.443050057E-1,-2.034229934E-1,-4.343290031E-1,5.008458164E-1
2.687631877E0,-9.929999942E-4,-4.580799863E-2,-7.119240165E-1,7.133969190E-1
2.692643562E0,-2.005389929E-1,2.477180064E-1,-8.688409925E-1,9.254538176E-1
2.697655179E0,-3.860599995E-1,6.401290298E-1,-7.569310069E-1,1.063838356E0
2.702666631E0,-5.567600131E-1,1.096408010E0,-5.312020183E-1,1.339502826E0
2.707678244E0,-7.133809924E-1,1.567114949E0,-2.624770105E-1,1.741739328E0
2.712689936E0,-8.079980016E-1,2.076076031E0,-5.309399962E-2,2.228401092E0
2.717701420E0,-7.638909817E-1,2.649539948E0,1.021550000E-1,2.759352643E0
2.722713110E0,-6.384959817E-1,3.237204075E0,2.130810022E-1,3.306443838E0
2.727724728E0,-4.292820096E-1,3.805535078E0,2.630999982E-1,3.838697941E0
2.732736174E0,-1.170329973E-1,4.234855175E0,1.255059987E-1,4.238330666E0
2.737747865E0,2.146220058E-1,4.458198071E0,-2.262170017E-1,4.469090150E0
2.742759482E0,4.628039896E-1,4.466054916E0,-7.326139808E-1,4.549346908E0
2.747771172E0,4.957669973E-1,4.296747208E0,-1.267101049E0,4.507035229E0
2.752782636E0,3.346689939E-1,4.096323013E0,-1.794247985E0,4.484550300E0
2.757794259E0,2.377440035E-1,3.869625092E0,-2.137320042E0,4.427037104E0
2.762805723E0,1.957560033E-1,3.516199112E0,-2.200767994E0,4.152752867E0
2.767817413E0,-2.340899967E-2,3.036041975E0,-2.120992899E0,3.703607665E0
2.772829031E0,-3.962959945E-1,2.565520048E0,-2.077369928E0,3.324817206E0
2.777840721E0,-6.410419941E-1,2.138089895E0,-2.325754881E0,3.223584806E0
2.782852184E0,-9.253330231E-1,1.801627994E0,-2.476239920E0,3.199041852E0
2.787863798E0,-1.263236046E0,1.493908048E0,-2.303788900E0,3.022411266E0
2.792875495E0,-1.690296054E0,1.269875050E0,-2.111813068E0,2.988216496E0
2.797886959E0,-2.093601942E0,1.107895017E0,-1.897379041E0,3.034904889E0
2.802898653E0,-2.460654974E0,9.791120291E-1,-1.609560013E0,3.099059003E0
2.807910270E0,-2.793363094E0,8.690879941E-1,-1.358000994E0,3.225268674E0
2.812921961E0,-3.019617081E0,7.394480109E-1,-1.211673975E0,3.336618722E0
2.817933395E0,-3.083580971E0,5.684379935E-1,-1.192028999E0,3.354478572E0
2.822945009E0,-3.052468061E0,3.970899880E-1,-1.345342994E0,3.359343611E0
2.827956701E0,-2.980457067E0,2.732419968E-1,-1.515764952E0,3.354896259E0
2.832968156E0,-2.838922977E0,2.113319933E-1,-1.677678943E0,3.304353419E0
2.837979846E0,-2.660583973E0,1.997900009E-1,-1.761847973E0,3.197300643E0
2.842991463E0,-2.472208023E0,2.006600052E-1,-1.784842014E0,3.055771255E0
2.848002925E0,-2.260150909E0,1.854210049E-1,-1.748594046E0,2.863606855E0
2.853014615E0,-2.027551889E0,1.587869972E-1,-1.692155004E0,2.645669770E0
2.858026238E0,-1.754513979E0,1.300999969E-1,-1.618397951E0,2.390493096E0
2.863037928E0,-1.442800045E0,1.302350014E-1,-1.511383057E0,2.093540511E0
2.868049395E0,-1.121924996E0,1.419229954E-1,-1.458099008E0,1.845239971E0
2.873061086E0,-7.971889973E-1,1.411280036E-1,-1.382657051E0,1.602238413E0
2.878072703E0,-4.900470078E-1,1.492220014E-1,-1.313488007E0,1.409845388E0
2.883084165E0,-2.071900070E-1,1.615259945E-1,-1.215677977E0,1.243740845E0
2.888095879E0,5.194500089E-2,1.756169945E-1,-1.124920964E0,1.139731015E0
2.893107496E0,2.996839881E-1,1.891330034E-1,-1.034203053E0,1.093232701E0
2.898118958E0,5.271239877E-1,2.091919929E-1,-9.832329750E-1,1.135063025E0
2.903130658E0,6.840559840E-1,2.145400047E-1,-9.431719780E-1,1.184708143E0
2.908142276E0,8.076710105E-1,2.056400031E-1,-8.326339722E-1,1.178091509E0
2.913153966E0,8.689780235E-1,1.588319987E-1,-7.212769985E-1,1.140434530E0
2.918165430E0,8.607159853E-1,5.519900098E-2,-6.210470200E-1,1.062816230E0
2.923177120E0,7.965350151E-1,-8.114399761E-2,-5.130990148E-1,9.509589779E-1
2.928188506E0,7.294369936E-1,-2.502059937E-1,-4.093819857E-1,8.730836026E-1
2.933200211E0,6.131569743E-1,-4.279839993E-1,-3.213689923E-1,8.138856234E-1
2.938211826E0,4.888739884E-1,-6.073629856E-1,-2.532170117E-1,8.197599818E-1
2.943223518E0,3.455159962E-1,-8.027399778E-1,-2.136320025E-1,8.996729451E-1
2.948234982E0,2.325319946E-1,-9.704539776E-1,-2.285660058E-1,1.023764851E0
2.953246672E0,1.409990042E-1,-1.133347034E0,-2.869049907E-1,1.177569825E0
2.958258290E0,3.501899913E-2,-1.286640048E0,-3.312219977E-1,1.329051148E0
2.963269756E0,-7.098300010E-2,-1.435109019E0,-3.327969909E-1,1.474900105E0
2.968281447E0,-1.602810025E-1,-1.562000036E0,-3.060230017E-1,1.599745039E0
2.973293059E0,-2.566159964E-1,-1.686444998E0,-2.341379970E-1,1.721850488E0
2.978304749E0,-3.337579966E-1,-1.810858011E0,-1.792220026E-1,1.850059908E0
2.983316208E0,-4.013029933E-1,-1.932844996E0,-1.125779971E-1,1.977272788E0
2.988327821E0,-4.687780142E-1,-2.052417040E0,-4.127600044E-2,2.105676196E0
2.993339519E0,-4.907760024E-1,-2.169595003E0,1.810400002E-2,2.224484506E0
2.998350982E0,-4.793500006E-1,-2.272452116E0,5.137199908E-2,2.323026932E0
3.003362605E0,-4.608240128E-1,-2.363389969E0,6.348299980E-2,2.408734316E0
3.008374297E0,-4.375599921E-1,-2.449604034E0,8.086100221E-2,2.489690176E0
3.013385975E0,-3.999840021E-1,-2.500019073E0,8.705600351E-2,2.533310348E0
3.018397439E0,-3.624610007E-1,-2.514637947E0,9.642200172E-2,2.542455346E0
3.023409052E0,-3.440519869E-1,-2.517411947E0,9.964500368E-2,2.542766959E0
3.028420744E0,-3.447540104E-1,-2.496357918E0,8.224999905E-2,2.521393116E0
3.033432208E0,-3.645339906E-1,-2.444334984E0,3.254599869E-2,2.471582041E0
3.038443821E0,-3.721849918E-1,-2.358896971E0,6.029500067E-2,2.388839064E0
3.043455514E0,-3.557899892E-1,-2.273534060E0,4.334900156E-2,2.301613080E0
3.048466977E0,-3.367159963E-1,-2.157107115E0,2.938799933E-2,2.183426761E0
3.053478654E0,-3.340429962E-1,-2.057463884E0,1.602200046E-2,2.084466134E0
3.058490271E0,-3.549320102E-1,-1.950667977E0,1.756599918E-2,1.982773526E0
3.063501748E0,-3.778789937E-1,-1.841516972E0,3.404799849E-2,1.880195883E0
3.068513438E0,-3.861050010E-1,-1.710868955E0,5.364200100E-2,1.754715680E0
3.073525055E0,-3.723480105E-1,-1.589835048E0,1.146610007E-1,1.636876802E0
3.078536746E0,-3.725599945E-1,-1.476008058E0,1.763129979E-1,1.532477409E0
3.083548209E0,-3.939360082E-1,-1.364590049E0,2.432560027E-1,1.440994470E0
3.088559823E0,-4.461979866E-1,-1.257974982E0,3.345539868E-1,1.376052350E0
3.093571515E0,-4.838959873E-1,-1.129834056E0,3.903149962E-1,1.289583699E0
3.098582978E0,-4.947989881E-1,-9.862059951E-1,3.986789882E-1,1.173189345E0
3.103594655E0,-4.758169949E-1,-8.451390266E-1,3.936510086E-1,1.046720069E0
3.108606272E0,-4.695659876E-1,-7.090449929E-1,3.708570004E-1,9.277779548E-1
3.113617734E0,-4.964280128E-1,-5.872409940E-1,3.840189874E-1,8.595134319E-1
3.118629332E0,-5.229930282E-1,-4.868220091E-1,4.131709933E-1,8.253651590E-1
3.123641024E0,-5.585079789E-1,-4.291220009E-1,4.831559956E-1,8.541174218E-1
3.128652488E0,-5.748550296E-1,-3.830960095E-1,5.485640168E-1,8.821243325E-1
3.133664173E0,-5.702610016E-1,-3.655650020E-1,5.975890160E-1,9.032984073E-1
3.138675791E0,-5.289859772E-1,-3.815650046E-1,5.980020165E-1,8.848866755E-1
3.143687252E0,-4.660089910E-1,-4.096800089E-1,5.812749863E-1,8.502250873E-1
3.148698943E0,-3.866100013E-1,-4.308309853E-1,5.594220161E-1,8.050065982E-1
3.153710560E0,-3.143340051E-1,-4.641070068E-1,5.394279957E-1,7.779355648E-1
3.158722021E0,-2.374159992E-1,-4.926919937E-1,5.396869779E-1,7.683578537E-1
3.163733698E0,-1.743900031E-1,-5.475010276E-1,5.711010098E-1,8.101392546E-1
3.168745315E0,-1.223210022E-1,-6.213070154E-1,5.955839753E-1,8.693130084E-1
3.173757011E0,-7.626999915E-2,-6.974030137E-1,6.017240286E-1,9.242618043E-1
3.178768474E0,-2.895100042E-2,-8.021110296E-1,6.016389728E-1,1.003090085E0
3.183780164E0,-5.855000112E-3,-9.066659808E-1,5.957300067E-1,1.084883276E0
3.188791767E0,2.153100073E-2,-1.011183023E0,5.679900050E-1,1.159985921E0
3.193803228E0,4.141400009E-2,-1.126281977E0,5.588120222E-1,1.257973405E0
3.198814938E0,6.614299864E-2,-1.222221017E0,5.639370084E-1,1.347673573E0
3.203826555E0,6.457000226E-2,-1.315778971E0,5.523930192E-1,1.428489283E0
3.208838036E0,5.099700019E-2,-1.380648017E0,5.123329759E-1,1.473524591E0
3.213849726E0,5.194099993E-2,-1.409623981E0,4.747700095E-1,1.488336049E0
3.218861343E0,6.737399846E-2,-1.407488942E0,4.469029903E-1,1.478271511E0
3.223872791E0,6.380899996E-2,-1.371840954E0,3.855539858E-1,1.426418966E0
3.228884481E0,6.038999930E-2,-1.312262058E0,3.410409987E-1,1.357198447E0
3.233896099E0,2.113999985E-2,-1.233528018E0,3.372040093E-1,1.278962398E0
3.238907789E0,-1.572900079E-2,-1.154793024E0,3.190009892E-1,1.198146886E0
3.243919252E0,-5.029200017E-2,-1.061718941E0,3.127999902E-1,1.107980247E0
3.248930871E0,-5.347700045E-2,-9.638590217E-1,2.857199907E-1,1.006737263E0
3.253942563E0,-4.312400147E-2,-8.640369773E-1,2.205960006E-1,8.927945862E-1
3.258954011E0,-3.108900040E-2,-7.862619758E-1,1.276299953E-1,7.971598561E-1
3.263965701E0,-2.912100032E-2,-7.066810131E-1,1.226700004E-2,7.073871403E-1
3.268977318E0,-3.910600021E-2,-6.371799707E-1,-1.065329984E-1,6.472069793E-1
3.273989009E0,-7.699900120E-2,-5.609769821E-1,-2.427050024E-1,6.160598501E-1
3.279000472E0,-1.048849970E-1,-4.755049944E-1,-3.331609964E-1,5.900017897E-1
3.284012062E0,-1.186169982E-1,-3.733339906E-1,-3.491800129E-1,5.247617957E-1
3.289023754E0,-1.765429974E-1,-2.755970061E-1,-3.116450012E-1,4.519333429E-1
3.294035141E0,-2.403990030E-1,-1.414629966E-1,-2.265529931E-1,3.593462380E-1
3.299046841E0,-3.053590059E-1,-4.348000046E-3,-1.207770035E-1,3.284054083E-1
3.304058305E0,-3.738479912E-1,1.500920057E-1,-6.264999975E-3,4.029009568E-1
3.309069990E0,-4.455870092E-1,2.931579947E-1,9.329000115E-2,5.414724526E-1
3.314081682E0,-5.134649873E-1,4.176410139E-1,1.900780052E-1,6.886217813E-1
3.319093304E0,-6.030169725E-1,5.236049891E-1,2.724330127E-1,8.438076796E-1
3.324104994E0,-6.832720041E-1,6.158189774E-1,3.452779949E-1,9.825021823E-1
3.329116457E0,-7.846419811E-1,6.705999970E-1,4.482870102E-1,1.125312685E0
3.334128071E0,-8.411359787E-1,6.948549747E-1,4.989889860E-1,1.199717958E0
3.339139534E0,-8.677189946E-1,7.004550099E-1,5.311830044E-1,1.235203975E0
3.344151134E0,-9.186270237E-1,6.850699782E-1,5.380749702E-1,1.265986239E0
3.349162826E0,-9.094259739E-1,6.651930213E-1,5.224440098E-1,1.241968237E0
3.354174290E0,-8.556929827E-1,6.359879971E-1,5.242599845E-1,1.188082381E0
3.359185994E0,-7.749860287E-1,6.045200229E-1,5.125290155E-1,1.108482654E0
3.364197611E0,-6.889089942E-1,5.491189957E-1,4.640789926E-1,9.957392154E-1
3.369209059E0,-5.978739858E-1,5.079039931E-1,3.891600072E-1,8.757084448E-1
3.374220749E0,-4.395169914E-1,4.921920002E-1,2.418690026E-1,7.028006582E-1
3.379232353E0,-2.044010013E-1,5.177630186E-1,-2.219099924E-2,5.570913329E-1
3.384243814E0,6.305100024E-2,6.226680279E-1,-2.714000046E-1,6.821648364E-1
3.389255504E0,2.846490145E-1,8.433030248E-1,-4.077230096E-1,9.789908608E-1
3.394267102E0,4.376389980E-1,1.173269033E0,-4.011670053E-1,1.314923223E0
3.399278563E0,5.181180239E-1,1.601255059E0,-3.823109865E-1,1.725869561E0
3.404290254E0,7.391650081E-1,2.117541075E0,-2.783850133E-1,2.260053833E0
3.409301876E0,7.901970148E-1,2.616842031E0,-8.911000192E-2,2.734998013E0
3.414313338E0,7.432320118E-1,2.991437912E0,1.212500036E-1,3.084768414E0
3.419325014E0,6.218420267E-1,3.195794106E0,2.569879889E-1,3.265858279E0
3.424336631E0,2.989229858E-1,3.191639900E0,2.986109853E-1,3.219485786E0
3.429348322E0,1.383000053E-3,3.026874065E0,2.301700041E-2,3.026961893E0
3.434359795E0,-2.205599993E-1,2.782959938E0,-3.383199871E-1,2.812111865E0
3.439371486E0,-4.048669934E-1,2.539017916E0,-4.868679941E-1,2.616786140E0
3.444383093E0,-5.584040284E-1,2.338172913E0,-6.020929813E-1,2.478181508E0
3.449394555E0,-6.809539795E-1,2.142101049E0,-6.334159970E-1,2.335275370E0
3.454406245E0,-6.861910224E-1,1.938807964E0,-6.619150043E-1,2.160547596E0
3.459417852E0,-5.596889853E-1,1.689952970E0,-7.231760025E-1,1.921503664E0
3.464429314E0,-3.326329887E-1,1.462486982E0,-7.212880254E-1,1.664262387E0
3.469440990E0,-2.901699953E-2,1.287505031E0,-6.036350131E-1,1.422282117E0
3.474452608E0,3.178020120E-1,1.174548984E0,-4.920110106E-1,1.312493150E0
3.479464069E0,6.548330188E-1,1.066812992E0,-4.762910008E-1,1.339309285E0
3.484475768E0,9.597160220E-1,9.817010164E-1,-5.212129951E-1,1.468487220E0
3.489487386E0,1.221452951E0,9.098799825E-1,-5.742310286E-1,1.627750033E0
3.494498847E0,1.441259980E0,8.854629993E-1,-5.677930117E-1,1.784282477E0
3.499510514E0,1.585512996E0,8.800320029E-1,-5.686200261E-1,1.900430614E0
3.504522131E0,1.653998017E0,8.820009828E-1,-5.579879880E-1,1.955757083E0
3.509533593E0,1.653424978E0,8.412709832E-1,-5.618399978E-1,1.938353737E0
3.514545283E0,1.650688052E0,7.840470076E-1,-5.772740245E-1,1.916440987E0
3.519556900E0,1.652804971E0,6.573969722E-1,-6.411939859E-1,1.890784170E0
3.524568591E0,1.566552043E0,4.587100148E-1,-7.895669937E-1,1.813261211E0
3.529580050E0,1.440878034E0,2.622889876E-1,-9.126250148E-1,1.725633054E0
3.534591663E0,1.349225998E0,1.087640002E-1,-1.010581017E0,1.689234854E0
3.539603126E0,1.258273005E0,-2.082600072E-2,-1.060492992E0,1.645700479E0
3.544614812E0,1.133548021E0,-1.361249983E-1,-1.123759031E0,1.601966133E0
3.549626430E0,1.015696049E0,-2.180290073E-1,-1.183526039E0,1.574772681E0
3.554638120E0,8.860679865E-1,-2.905339897E-1,-1.258437037E0,1.566266342E0
3.559649574E0,7.842940092E-1,-3.390429914E-1,-1.278502941E0,1.537737628E0
3.564661187E0,6.908980012E-1,-3.681190014E-1,-1.254740000E0,1.478926676E0
3.569672879E0,6.124240160E-1,-3.610759974E-1,-1.244480968E0,1.433238267E0
3.574684353E0,5.318880081E-1,-3.321799934E-1,-1.222108960E0,1.373607918E0
3.579695966E0,4.606939852E-1,-2.861329913E-1,-1.181270003E0,1.299811470E0
3.584707659E0,3.611570001E-1,-2.228080034E-1,-1.125092030E0,1.202459920E0
3.589719375E0,2.456009984E-1,-1.710799932E-1,-1.109925985E0,1.149575534E0
3.594730839E0,1.165369973E-1,-1.261650026E-1,-1.092740059E0,1.106155195E0
3.599742456E0,9.095000103E-3,-5.444400012E-2,-1.038835049E0,1.040300498E0
3.604754148E0,-1.031299978E-1,5.142299831E-2,-9.328179955E-1,9.399093222E-1
3.609765598E0,-1.968359947E-1,1.817969978E-1,-8.224790096E-1,8.650238601E-1
3.614777211E0,-2.910589874E-1,3.103460073E-1,-7.030990124E-1,8.218139690E-1
3.619788689E0,-3.810459971E-1,4.273679852E-1,-6.049240232E-1,8.329300814E-1
3.624800379E0,-4.599120021E-1,5.207960010E-1,-5.250099897E-1,8.708518896E-1
3.629811983E0,-5.371990204E-1,5.762969851E-1,-4.467869997E-1,9.057149804E-1
3.634823444E0,-6.058509946E-1,5.865889788E-1,-4.030179977E-1,9.346472940E-1
3.639835365E0,-6.495839953E-1,5.325499773E-1,-3.606210053E-1,9.141205362E-1
3.644846752E0,-6.968770027E-1,4.429709911E-1,-3.082000017E-1,8.813898666E-1
3.649858213E0,-7.195879817E-1,3.273310065E-1,-2.859440148E-1,8.406642795E-1
3.654869914E0,-7.297779918E-1,1.856060028E-1,-2.722490132E-1,8.007153244E-1
3.659881529E0,-6.904649734E-1,2.262400091E-2,-2.323449999E-1,7.288607027E-1
3.664892993E0,-6.168739796E-1,-1.497420073E-1,-1.971430033E-1,6.646965768E-1
3.669904683E0,-5.122150183E-1,-3.246560097E-1,-2.407750040E-1,6.524862850E-1
3.674916300E0,-4.378930032E-1,-5.017309785E-1,-1.916420013E-1,6.929725202E-1
3.679928000E0,-3.395659924E-1,-6.950560212E-1,-5.511999875E-2,7.755295933E-1
3.684939463E0,-1.786140054E-1,-9.074950218E-1,-1.733700000E-2,9.250679700E-1
3.689951154E0,-8.489999920E-3,-1.137428045E0,-4.699699953E-2,1.138430216E0
3.694962785E0,1.286409944E-1,-1.379204035E0,-7.983800024E-2,1.387489236E0
3.699974246E0,2.638379931E-1,-1.623278022E0,-1.132220030E-1,1.648472397E0
3.704985874E0,3.515099883E-1,-1.855314970E0,-9.439200163E-2,1.890677857E0
3.709997566E0,4.346779883E-1,-2.082514048E0,-3.278800100E-2,2.127647707E0
3.715009035E0,5.228800178E-1,-2.295336008E0,5.275699869E-2,2.354730176E0
3.720020725E0,5.920270085E-1,-2.484244108E0,1.217570007E-1,2.556714598E0
3.725032342E0,6.491979957E-1,-2.625336885E0,1.528649926E-1,2.708730239E0
3.730043790E0,6.967849731E-1,-2.742542982E0,1.317249984E-1,2.832737683E0
3.735055480E0,7.419040203E-1,-2.819128990E0,1.110439971E-1,2.917231669E0
3.740067098E0,7.772439718E-1,-2.869467974E0,1.268209964E-1,2.975573593E0
3.745078559E0,8.077740073E-1,-2.883979082E0,1.455619931E-1,2.998503374E0
3.750090173E0,7.999119759E-1,-2.877012968E0,1.839410067E-1,2.991804987E0
3.755101865E0,7.752310038E-1,-2.843797922E0,2.372869998E-1,2.957105824E0
3.760113329E0,7.337089777E-1,-2.772361040E0,2.863810062E-1,2.882070208E0
3.765125004E0,6.873760223E-1,-2.684245110E0,3.241119981E-1,2.789750202E0
3.770136621E0,6.433359981E-1,-2.562705040E0,3.529770076E-1,2.665695237E0
3.775148075E0,5.920810103E-1,-2.414928913E0,3.777729869E-1,2.514985886E0
3.780159765E0,5.527549982E-1,-2.264846087E0,3.842020035E-1,2.362768940E0
3.785171461E0,5.157290101E-1,-2.112449884E0,3.698129952E-1,2.205715888E0
3.790183079E0,4.929629862E-1,-1.950561047E0,3.632610142E-1,2.044421548E0
3.795194540E0,4.916990101E-1,-1.807867050E0,3.476760089E-1,1.905526120E0
3.800206145E0,4.927479923E-1,-1.667629004E0,3.230719864E-1,1.768661241E0
3.805217837E0,5.032150149E-1,-1.536998034E0,2.844150066E-1,1.642096283E0
3.810229301E0,5.327320099E-1,-1.423143983E0,2.364300042E-1,1.537869090E0
3.815240914E0,5.740550160E-1,-1.316483021E0,2.005320042E-1,1.450130956E0
3.820252606E0,6.032950282E-1,-1.228966951E0,2.029149979E-1,1.384015591E0
3.825264060E0,6.444429755E-1,-1.155789971E0,2.458509952E-1,1.345956878E0
3.830275673E0,6.544830203E-1,-1.092159033E0,2.933839858E-1,1.306611472E0
3.835287371E0,6.478080153E-1,-1.054829001E0,3.432280123E-1,1.284571880E0
3.840298834E0,6.005629897E-1,-1.039016008E0,3.906050026E-1,1.262062771E0
3.845310448E0,5.182660222E-1,-1.019898057E0,4.130800068E-1,1.216316903E0
3.850322140E0,4.227440059E-1,-1.017176986E0,4.393480122E-1,1.185912387E0
3.855333603E0,3.351419866E-1,-9.998270273E-1,4.554859996E-1,1.148669548E0
3.860345212E0,2.460550070E-1,-9.798300266E-1,4.687950015E-1,1.113722901E0
3.865356675E0,1.648779958E-1,-9.692019820E-1,4.652589858E-1,1.087659487E0
3.870368361E0,9.832199663E-2,-9.535570145E-1,4.778029919E-1,1.071090049E0
3.875379978E0,2.976400033E-2,-9.328160286E-1,5.058270097E-1,1.061551978E0
3.880391445E0,-1.986400038E-2,-9.092929959E-1,5.603209734E-1,1.068254616E0
3.885403135E0,-4.877199978E-2,-9.045379758E-1,6.101549864E-1,1.092179823E0
3.890414827E0,-9.229599684E-2,-9.113169909E-1,6.576619744E-1,1.127624264E0
3.895426435E0,-1.153979972E-1,-9.033449888E-1,7.076399922E-1,1.153301012E0
3.900437896E0,-1.465999931E-1,-8.758310080E-1,7.555710077E-1,1.165958430E0
3.905449506E0,-1.695120037E-1,-8.408100009E-1,7.900500298E-1,1.166136710E0
3.910460969E0,-1.681600064E-1,-7.887499928E-1,8.254879713E-1,1.154051442E0
3.915472660E0,-1.573300064E-1,-7.053250074E-1,8.644850254E-1,1.126752172E0
3.920484286E0,-1.534540057E-1,-6.288120151E-1,8.975849748E-1,1.106621647E0
3.925495976E0,-1.377959996E-1,-5.638179779E-1,9.665120244E-1,1.127396977E0
3.930507445E0,-1.129299998E-1,-5.056729913E-1,1.012333989E0,1.137224017E0
3.935519058E0,-8.385600150E-2,-4.738659859E-1,9.609029889E-1,1.074669882E0
3.940530517E0,-5.772100016E-2,-4.540370107E-1,9.150069952E-1,1.023092920E0
3.945542207E0,-1.118300017E-2,-4.508950114E-1,8.882139921E-1,9.961704004E-1
3.950553914E0,6.195199862E-2,-4.334029853E-1,8.733969927E-1,9.769843933E-1
3.955565532E0,1.399729997E-1,-4.303689897E-1,8.423510194E-1,9.562244233E-1
3.960576993E0,2.435790002E-1,-4.302670062E-1,7.495110035E-1,8.979015371E-1
3.965588684E0,3.302190006E-1,-4.332270026E-1,6.339759827E-1,8.358563099E-1
3.970600301E0,3.981350064E-1,-4.367890060E-1,5.384989977E-1,7.995481784E-1
3.975611767E0,4.270940125E-1,-4.337919950E-1,4.491409957E-1,7.565133340E-1
3.980623457E0,4.345079958E-1,-4.120379984E-1,3.981589973E-1,7.190988094E-1
3.985635074E0,4.535540044E-1,-3.596639931E-1,3.452759981E-1,6.740066304E-1
3.990646536E0,4.421179891E-1,-2.837859988E-1,3.047409952E-1,6.073465926E-1
3.995658212E0,3.942269981E-1,-1.961510032E-1,2.971580029E-1,5.312184304E-1
4.000669830E0,3.155780137E-1,-8.949600160E-2,2.983860075E-1,4.434334522E-1
4.005681286E0,2.255419940E-1,2.472800016E-2,3.893780112E-1,4.506616255E-1
4.010692976E0,1.430899948E-1,1.777880043E-1,5.141540170E-1,5.625279320E-1
4.015704594E0,8.405999839E-2,3.649069965E-1,6.533179879E-1,7.530256256E-1
4.020716060E0,3.611800075E-2,5.692380071E-1,7.786210179E-1,9.651876026E-1
4.025727674E0,2.677099966E-2,7.834810019E-1,8.880239725E-1,1.184544530E0
4.030739366E0,5.809099972E-2,9.798079729E-1,9.887210131E-1,1.393186086E0
4.035750830E0,1.113390028E-1,1.130818009E0,1.036162019E0,1.537783298E0
4.040762520E0,1.695799977E-1,1.258095026E0,1.051566958E0,1.648439728E0
4.045774155E0,2.302460074E-1,1.347347975E0,1.051260948E0,1.724386665E0
4.050785846E0,2.859480083E-1,1.424937963E0,1.037384033E0,1.785603566E0
4.055797305E0,3.915669918E-1,1.500499964E0,1.031051040E0,1.862227456E0
4.060808919E0,5.113139749E-1,1.533444047E0,9.983469844E-1,1.899891925E0
4.065820382E0,5.423529744E-1,1.562131047E0,9.604369998E-1,1.912286429E0
4.070832067E0,4.607889950E-1,1.543499947E0,9.604200125E-1,1.875400006E0
4.075843685E0,2.306150049E-1,1.573248982E0,6.992499828E-1,1.737022216E0
4.080855155E0,-4.941000137E-3,1.715950966E0,2.297320068E-1,1.731268011E0
4.085866846E0,-1.814540029E-1,1.933280945E0,5.692899972E-2,1.942612076E0
4.090878463E0,-3.420340121E-1,2.210769892E0,1.790879965E-1,2.244228885E0
4.095890158E0,-3.886579871E-1,2.622428894E0,5.013599992E-1,2.698064155E0
4.100901622E0,-3.047139943E-1,3.127358913E0,9.267039895E-1,3.275973852E0
4.105913239E0,-7.793900371E-2,3.634601116E0,1.134668946E0,3.808395119E0
4.110924703E0,2.658779919E-1,4.026947975E0,9.888600111E-1,4.155098702E0
4.115936316E0,6.241710186E-1,4.227989197E0,6.441159844E-1,4.322079073E0
4.120948009E0,8.822709918E-1,4.213963985E0,2.265570015E-1,4.311290137E0
4.125959472E0,1.051859975E0,3.977822065E0,-2.238119990E-1,4.120627331E0
4.130971178E0,1.221174002E0,3.610517979E0,-5.755289793E-1,3.854651686E0
4.135982795E0,1.363713026E0,3.200522900E0,-7.636659741E-1,3.561775648E0
4.140994257E0,1.405117035E0,2.783584118E0,-8.115090132E-1,3.221993374E0
4.146005865E0,1.337939978E0,2.383410931E0,-8.521400094E-1,2.863018275E0
4.151017557E0,1.178874969E0,2.047724962E0,-9.352480173E-1,2.541183301E0
4.156029255E0,9.399480224E-1,1.721421003E0,-1.036612988E0,2.218413632E0
4.161040641E0,6.502940059E-1,1.454782009E0,-1.129932046E0,1.953463441E0
4.166052331E0,3.278909922E-1,1.199851990E0,-1.170665026E0,1.708102427E0
4.171064019E0,3.565900028E-2,9.718350172E-1,-1.199028969E0,1.543828142E0
4.176075482E0,-2.316620052E-1,7.830479741E-1,-1.173642993E0,1.429779455E0
4.181087096E0,-4.935809970E-1,6.577559710E-1,-1.091274023E0,1.366434818E0
4.186098573E0,-7.253860235E-1,6.538169980E-1,-9.015809894E-1,1.329101136E0
4.191110264E0,-9.123079777E-1,7.734749913E-1,-6.762899756E-1,1.374022394E0
4.196121881E0,-1.131345034E0,9.727979898E-1,-5.664309859E-1,1.595970418E0
4.201133358E0,-1.316995025E0,1.138355970E0,-5.509390235E-1,1.825887187E0
4.206145048E0,-1.442944050E0,1.286854029E0,-6.081320047E-1,2.026796822E0
4.211156693E0,-1.540209055E0,1.384824991E0,-7.812309861E-1,2.213663489E0
4.216168155E0,-1.608701944E0,1.398746014E0,-9.217879772E-1,2.322521352E0
4.221179836E0,-1.653020978E0,1.333399057E0,-1.013008952E0,2.353002027E0
4.226191454E0,-1.689632058E0,1.179219961E0,-1.102736950E0,2.336973468E0
4.231202915E0,-1.707947969E0,9.237620234E-1,-1.165442944E0,2.264658870E0
4.236214539E0,-1.741515994E0,5.965290070E-1,-1.232718945E0,2.215473044E0
4.241226231E0,-1.789412022E0,2.432660013E-1,-1.285845041E0,2.216883218E0
4.246237680E0,-1.755828023E0,-7.915399969E-2,-1.385270953E0,2.237894773E0
4.251249294E0,-1.698771954E0,-3.779659867E-1,-1.485170960E0,2.287884879E0
4.256260986E0,-1.621837974E0,-6.100649834E-1,-1.566817999E0,2.336119932E0
4.261272450E0,-1.474730968E0,-8.259019852E-1,-1.639861941E0,2.355014375E0
4.266284063E0,-1.325397968E0,-9.823390245E-1,-1.690711975E0,2.362239767E0
4.271295755E0,-1.185243964E0,-1.108172059E0,-1.722730041E0,2.366568689E0
4.276307219E0,-1.011536002E0,-1.191092968E0,-1.710885048E0,2.317117863E0
4.281318832E0,-7.926300168E-1,-1.238330960E0,-1.657523990E0,2.215651527E0
4.286330515E0,-5.455520153E-1,-1.240327001E0,-1.584300041E0,2.084716933E0
4.291341978E0,-2.610340118E-1,-1.225821018E0,-1.498469949E0,1.953506619E0
4.296353668E0,4.172499850E-2,-1.182870030E0,-1.419093966E0,1.847904264E0
4.301365281E0,3.198040128E-1,-1.121005058E0,-1.331946015E0,1.770030264E0
4.306376742E0,5.444939733E-1,-1.052199960E0,-1.227391005E0,1.705897746E0
4.311388356E0,7.207710147E-1,-9.429230094E-1,-1.091086984E0,1.612167939E0
4.316400044E0,8.822979927E-1,-8.314200044E-1,-9.374759793E-1,1.532504546E0
4.321411736E0,9.784780145E-1,-7.042250037E-1,-7.776659727E-1,1.434613692E0
4.326423200E0,1.024839997E0,-5.764780045E-1,-6.544250250E-1,1.345695368E0
4.331434808E0,1.037137985E0,-4.387179911E-1,-5.687919855E-1,1.261607308E0
4.336446272E0,1.012009978E0,-3.196620047E-1,-5.151529908E-1,1.179716321E0
4.341457870E0,9.343990088E-1,-2.312449962E-1,-4.951690137E-1,1.082482382E0
4.346469563E0,8.105869889E-1,-1.755550057E-1,-4.593459964E-1,9.480873225E-1
4.351481031E0,6.557689905E-1,-1.596039981E-1,-4.130409956E-1,7.912706674E-1
4.356492645E0,4.825749993E-1,-2.194440067E-1,-4.079029858E-1,6.688939736E-1
4.361504332E0,2.845810056E-1,-3.092980087E-1,-3.734480143E-1,5.622410749E-1
4.366515796E0,1.135540009E-1,-4.314840138E-1,-3.154929876E-1,5.464510870E-1
4.371527409E0,-1.017099991E-2,-5.936599970E-1,-3.279829919E-1,6.783129693E-1
4.376538872E0,-9.724699706E-2,-7.744969726E-1,-3.578630090E-1,8.587016200E-1
4.381550563E0,-1.903910041E-1,-9.547240138E-1,-3.744359910E-1,1.043047932E0
4.386562180E0,-2.726080120E-1,-1.137138963E0,-3.839719892E-1,1.230786187E0
4.391573865E0,-3.455759883E-1,-1.324275970E0,-3.868609965E-1,1.422248586E0
4.396585329E0,-3.899889886E-1,-1.504191041E0,-3.661519885E-1,1.596480309E0
4.401596928E0,-5.136439800E-1,-1.698472023E0,-3.072580099E-1,1.800845589E0
4.406608392E0,-4.797010124E-1,-1.856904030E0,-2.435590029E-1,1.933268379E0
4.411620082E0,-4.531199932E-1,-1.998621941E0,-1.606020033E-1,2.055626521E0
4.416631765E0,-4.170910120E-1,-2.126065016E0,-1.490779966E-1,2.171713980E0
4.421643382E0,-3.788180053E-1,-2.212905884E0,-1.515740007E-1,2.250206704E0
4.426654849E0,-3.262099922E-1,-2.251977921E0,-1.392509937E-1,2.279738659E0
4.431666539E0,-2.734909952E-1,-2.260035038E0,-1.311240047E-1,2.280295858E0
4.436678156E0,-2.060749978E-1,-2.239480019E0,-1.366109997E-1,2.253086821E0
4.441689842E0,-1.669359952E-1,-2.209428072E0,-1.533840001E-1,2.221028294E0
4.446701228E0,-1.535769999E-1,-2.181857109E0,-1.789339930E-1,2.194562306E0
4.451712671E0,-1.492680013E-1,-2.135235071E0,-1.509940028E-1,2.145765349E0
4.456724361E0,-1.491310000E-1,-2.055186033E0,-1.414150000E-1,2.065436489E0
4.461735977E0,-1.890580058E-1,-1.946491957E0,-1.214750037E-1,1.959420844E0
4.466747683E0,-2.332279980E-1,-1.835463047E0,-9.846799821E-2,1.852839940E0
4.471759146E0,-3.007110059E-1,-1.712492943E0,-8.924999833E-2,1.740983846E0
4.476770760E0,-3.796539903E-1,-1.587162971E0,-1.130080000E-1,1.635846649E0
4.481782223E0,-4.462510049E-1,-1.454663038E0,-1.124859974E-1,1.525725275E0
4.486793914E0,-5.028870106E-1,-1.317353964E0,-1.046020016E-1,1.413951339E0
4.491805531E0,-5.568720102E-1,-1.189586997E0,-9.904699773E-2,1.317206881E0
4.496817221E0,-5.679550171E-1,-1.080135942E0,-7.494000345E-2,1.222653899E0
4.501828685E0,-5.722969770E-1,-9.658319950E-1,-3.669200093E-2,1.123254902E0
4.506840284E0,-5.514760017E-1,-8.682619929E-1,-1.261000056E-3,1.028594312E0
4.511851748E0,-5.225660205E-1,-7.660589814E-1,1.528900024E-2,9.274456115E-1
4.516863433E0,-4.786500037E-1,-7.046989799E-1,2.472200058E-2,8.522427210E-1
4.521875051E0,-4.134179950E-1,-6.196910143E-1,4.139300063E-2,7.460863035E-1
4.526886741E0,-3.320290148E-1,-5.516219735E-1,7.872399688E-2,6.486351332E-1
4.531898209E0,-2.626270056E-1,-5.098909736E-1,1.288760006E-1,5.878526793E-1
4.536909823E0,-1.884829998E-1,-4.873130023E-1,1.797399968E-1,5.525452650E-1
4.541921286E0,-1.096789986E-1,-4.744159877E-1,2.150280029E-1,5.322941425E-1
4.546932919E0,-4.260300100E-2,-4.781169891E-1,2.860800028E-1,5.587957042E-1
4.551944382E0,2.718300000E-2,-5.031589866E-1,3.616099954E-1,6.202174377E-1
4.556956073E0,1.042359993E-1,-5.257009864E-1,4.251550138E-1,6.840931635E-1
4.561967765E0,1.698520035E-1,-5.601800084E-1,4.584119916E-1,7.435004364E-1
4.566979382E0,2.127739936E-1,-6.137660146E-1,4.714690149E-1,8.026609029E-1
4.571990844E0,2.522020042E-1,-6.577879786E-1,4.765770137E-1,8.505389619E-1
4.577002457E0,2.928290069E-1,-7.093240023E-1,4.205330014E-1,8.750642107E-1
4.582014155E0,3.391669989E-1,-7.492039800E-1,3.747459948E-1,9.037562820E-1
4.587025618E0,3.817240000E-1,-7.751529813E-1,3.160110116E-1,9.200208237E-1
4.592037309E0,4.067789912E-1,-8.206800222E-1,2.328670025E-1,9.450988771E-1
4.597048930E0,4.032480121E-1,-8.518779874E-1,2.098409981E-1,9.655766718E-1
4.602060391E0,4.138599932E-1,-8.951339722E-1,1.800239980E-1,1.002473721E0
4.607072015E0,3.963620067E-1,-9.165940285E-1,1.971070021E-1,1.017889298E0
4.612083707E0,3.957490027E-1,-9.330779910E-1,2.156289965E-1,1.036217967E0
4.617095171E0,3.859789968E-1,-9.326379895E-1,2.287289947E-1,1.034944616E0
4.622106798E0,3.766109943E-1,-9.081900120E-1,2.249850035E-1,1.008594661E0
4.627118490E0,3.583920002E-1,-8.645430207E-1,2.118829936E-1,9.595696241E-1
4.632129954E0,3.523940146E-1,-7.825469971E-1,2.106039971E-1,8.836941709E-1
4.637141567E0,3.558309972E-1,-6.574339867E-1,2.138320059E-1,7.775340971E-1
4.642153031E0,4.124560058E-1,-5.197799802E-1,3.394629955E-1,7.453363736E-1
4.647164726E0,4.626519978E-1,-3.467139900E-1,2.704600096E-1,6.382836977E-1
4.652176344E0,5.064030290E-1,-1.094200015E-1,2.240020037E-1,5.644410174E-1
4.657187834E0,5.159549713E-1,1.468939930E-1,2.065179944E-1,5.748365504E-1
4.662199448E0,5.803530216E-1,4.149509966E-1,2.125449926E-1,7.444255055E-1
4.667211140E0,7.262560129E-1,6.942340136E-1,1.693850011E-1,1.018871896E0
4.672222607E0,8.772959709E-1,9.172999859E-1,2.216999978E-2,1.269479812E0
4.677234298E0,9.497439861E-1,1.077000022E0,-2.012799978E-1,1.449984939E0
4.682245925E0,1.044764042E0,1.168194056E0,-4.338920116E-1,1.626183118E0
4.687257616E0,1.106680036E0,1.192697048E0,-6.510419846E-1,1.752461873E0
4.692269079E0,1.053012013E0,1.134325027E0,-8.252130151E-1,1.753996605E0
4.697280779E0,8.684800267E-1,1.006610990E0,-9.814879894E-1,1.652525919E0
4.702292166E0,5.499429703E-1,8.482589722E-1,-1.117352009E0,1.506803261E0
4.707303860E0,1.364579946E-1,6.047719717E-1,-1.188384056E0,1.340383000E0
4.712315476E0,-3.083859980E-1,3.503679931E-1,-1.275091052E0,1.357835353E0
4.717326939E0,-7.504270077E-1,7.577200234E-2,-1.327913046E0,1.527165724E0
4.722338621E0,-1.154276013E0,-1.900230050E-1,-1.345402002E0,1.782854006E0
4.727350238E0,-1.467187047E0,-4.253750145E-1,-1.326225042E0,2.022981611E0
4.732361704E0,-1.719750047E0,-6.014029980E-1,-1.271538973E0,2.221719413E0
4.737373317E0,-1.834926963E0,-7.088919878E-1,-1.210363030E0,2.309645747E0
4.742385005E0,-1.830790997E0,-7.503709793E-1,-1.101519942E0,2.264552597E0
4.747396469E0,-1.805799007E0,-7.853000164E-1,-9.259510040E-1,2.176003546E0
4.752408067E0,-1.728427052E0,-7.709209919E-1,-7.483549714E-1,2.035144814E0
4.757419531E0,-1.495444059E0,-7.585669756E-1,-6.387569904E-1,1.794376573E0
4.762431221E0,-1.100028992E0,-7.283340096E-1,-6.580160260E-1,1.474286032E0
4.767442838E0,-6.287389994E-1,-7.006700039E-1,-8.142039776E-1,1.244660315E0
4.772454300E0,-1.201609969E-1,-5.900130272E-1,-9.573069811E-1,1.130924707E0
4.777465976E0,3.582389951E-1,-3.127419949E-1,-1.080883026E0,1.180868684E0
4.782477594E0,9.115160108E-1,1.371019930E-1,-1.364578009E0,1.646733596E0
4.787489289E0,1.559506059E0,6.309810281E-1,-1.468219042E0,2.232904691E0
4.792500753E0,2.096084118E0,1.082259059E0,-1.343765974E0,2.714877583E0
4.797512366E0,2.745693922E0,1.538530946E0,-1.203186989E0,3.369506123E0
4.802523829E0,3.472098112E0,2.001713991E0,-1.063076019E0,4.146378519E0
4.807535442E0,4.149805069E0,2.454768896E0,-9.013919830E-1,4.905025989E0
4.812547134E0,4.679882050E0,2.945285082E0,-6.098539829E-1,5.563085663E0
4.817558598E0,4.971157074E0,3.386890888E0,-3.656699881E-2,6.015377768E0
4.822570288E0,4.940112114E0,3.676462889E0,6.622869968E-1,6.193521707E0
4.827581906E0,4.663690090E0,3.648684025E0,9.477999806E-1,5.996767894E0
4.832593601E0,4.345384121E0,3.356102943E0,6.292769909E-1,5.526461767E0
4.837605064E0,4.076340199E0,2.995029926E0,-3.992399946E-2,5.058492621E0
4.842616678E0,3.778074026E0,2.745213032E0,-7.211530209E-1,4.725473481E0
4.847628136E0,3.422544003E0,2.537650108E0,-1.253381968E0,4.441220764E0
4.852639827E0,2.895642042E0,2.308123112E0,-1.535403967E0,4.008695608E0
4.857651425E0,2.358062029E0,2.021025896E0,-1.618978977E0,3.502298550E0
4.862662887E0,1.805287957E0,1.726799965E0,-1.562576056E0,2.946616137E0
4.867674491E0,1.385965943E0,1.490237951E0,-1.503643036E0,2.530346444E0
4.872686183E0,1.114871025E0,1.359334946E0,-1.404420972E0,2.250139365E0
4.877697647E0,9.566100240E-1,1.348564982E0,-1.255589008E0,2.076110307E0
4.882709255E0,8.783259988E-1,1.465198994E0,-1.057049036E0,2.008884595E0
4.887720719E0,8.352950215E-1,1.651901960E0,-8.372129798E-1,2.031606122E0
4.892732409E0,7.682769895E-1,1.863234997E0,-5.811650157E-1,2.097533542E0
4.897744012E0,6.681129932E-1,2.065675974E0,-2.235639989E-1,2.182515306E0
4.902755473E0,5.994210243E-1,2.215993881E0,2.392490059E-1,2.308067272E0
4.907767163E0,6.170390248E-1,2.306778908E0,6.629049778E-1,2.478186655E0
4.912778781E0,7.565789819E-1,2.340168953E0,1.005929947E0,2.657197310E0
4.917790242E0,1.003396988E0,2.315953970E0,1.166816950E0,2.780631241E0
4.922801928E0,1.350150943E0,2.257961035E0,1.112787962E0,2.856500070E0
4.927813545E0,1.696192980E0,2.144665003E0,8.533520103E-1,2.864414120E0
4.932824993E0,1.967108965E0,1.925889969E0,4.763579965E-1,2.793830130E0
4.937836606E0,2.109915972E0,1.647212982E0,5.233300105E-2,2.677273755E0
4.942848312E0,2.188580990E0,1.332627058E0,-3.171969950E-1,2.581936397E0
4.947859776E0,2.168785095E0,1.013468981E0,-5.814589858E-1,2.463502124E0
4.952871466E0,2.115469933E0,7.210909724E-1,-6.866750121E-1,2.338099185E0
4.957883089E0,2.049707890E0,4.676010013E-1,-7.283999920E-1,2.224976332E0
4.962894550E0,1.992184043E0,2.196359932E-1,-6.716129780E-1,2.113788358E0
4.967906164E0,1.905148029E0,8.349999785E-3,-6.169099808E-1,2.002557530E0
4.972917861E0,1.842627048E0,-1.759829968E-1,-5.623670220E-1,1.934554502E0
4.977929324E0,1.859460950E0,-3.074559867E-1,-5.080540180E-1,1.951984399E0
4.982940933E0,1.837456942E0,-4.266180098E-1,-5.074120164E-1,1.953386263E0
4.987952625E0,1.789571047E0,-5.284630060E-1,-4.823589921E-1,1.927305860E0
4.992964089E0,1.749487042E0,-6.009140015E-1,-4.243609905E-1,1.897863219E0
4.997975707E0,1.694404006E0,-6.342239976E-1,-3.434959948E-1,1.841530481E0
5.002987399E0,1.641500950E0,-6.522989869E-1,-2.539379895E-1,1.784517817E0
5.007998858E0,1.556563973E0,-6.525689960E-1,-1.414400041E-1,1.693736394E0
5.013010471E0,1.468842983E0,-6.685339808E-1,-2.724700049E-2,1.614056936E0
5.018021945E0,1.360443950E0,-6.904720068E-1,1.307259947E-1,1.531224549E0
5.023033635E0,1.267179966E0,-7.327979803E-1,2.942799926E-1,1.493097003E0
5.028045253E0,1.198021054E0,-8.195369840E-1,4.470860064E-1,1.518809143E0
5.033056714E0,1.159152985E0,-9.387919903E-1,6.057249904E-1,1.609928199E0
5.038068337E0,1.222967982E0,-1.102273941E0,7.472829819E-1,1.808062605E0
5.043080029E0,1.358721018E0,-1.289698958E0,7.604230046E-1,2.021803490E0
5.048091741E0,1.516121030E0,-1.505869985E0,7.074609995E-1,2.250948345E0
5.053103205E0,1.749922991E0,-1.674229980E0,5.811929703E-1,2.490594661E0
5.058114818E0,1.997735023E0,-1.818724036E0,3.888179958E-1,2.729447156E0
5.063126296E0,2.209160089E0,-1.960888982E0,1.877579987E-1,2.959852524E0
5.068137909E0,2.388868093E0,-2.043292046E0,-3.012999892E-3,3.143523855E0
5.073149601E0,2.543807030E0,-2.075504065E0,-8.794999868E-2,3.284266513E0
5.078161070E0,2.697998047E0,-2.119705915E0,-2.730650008E-1,3.441934213E0
5.083172683E0,2.880172014E0,-2.149544954E0,-5.826939940E-1,3.640805767E0
5.088184376E0,3.066538095E0,-2.153012991E0,-8.592069745E-1,3.844132861E0
5.093196092E0,3.154391050E0,-2.110934019E0,-1.031116009E0,3.933119062E0
5.098207479E0,3.220444918E0,-2.052031994E0,-1.157948017E0,3.990356423E0
5.103219188E0,3.190710068E0,-1.983494997E0,-1.217980027E0,3.949475723E0
5.108230652E0,3.144330025E0,-1.888581991E0,-1.213369966E0,3.863394869E0
5.113242251E0,3.026504040E0,-1.772081971E0,-1.215724945E0,3.711871274E0
5.118253943E0,2.897232056E0,-1.636387944E0,-1.193928957E0,3.535135845E0
5.123265421E0,2.727916002E0,-1.433645010E0,-1.143128991E0,3.286884181E0
5.128277034E0,2.451759100E0,-1.209666967E0,-1.053213000E0,2.929790859E0
5.133288508E0,2.183702946E0,-1.003087997E0,-9.323639870E-1,2.577604836E0
5.138300121E0,1.925969958E0,-7.711160183E-1,-7.884489894E-1,2.219376490E0
5.143311808E0,1.675840974E0,-5.571630001E-1,-6.545000076E-1,1.883412817E0
5.148323501E0,1.432747006E0,-3.687720001E-1,-5.694599748E-1,1.585257530E0
5.153334887E0,1.154397964E0,-2.110110074E-1,-5.083209872E-1,1.278886442E0
5.158346349E0,8.832759857E-1,-7.210200280E-2,-4.444800019E-1,9.914321146E-1
5.163358039E0,5.955380201E-1,3.580399975E-2,-3.915419877E-1,7.136193579E-1
5.168369640E0,3.330639899E-1,1.077490002E-1,-3.720470071E-1,5.108428759E-1
5.173381332E0,1.250330061E-1,1.699140072E-1,-4.058119953E-1,4.573700886E-1
5.178392796E0,-4.191400111E-2,2.101410031E-1,-5.354220271E-1,5.767085675E-1
5.183404409E0,-1.458919942E-1,2.404049933E-1,-6.933730245E-1,7.482280306E-1
5.188416101E0,-2.188819945E-1,2.679049969E-1,-8.745059967E-1,9.404483788E-1
5.193427565E0,-2.013780028E-1,2.785199881E-1,-9.997040033E-1,1.057135080E0
5.198439164E0,-1.515379995E-1,2.844640017E-1,-1.024443984E0,1.073950190E0
5.203450857E0,-8.856900036E-2,2.714709938E-1,-9.982190132E-1,1.038259200E0
5.208462320E0,-1.949300058E-2,2.564249933E-1,-8.783180118E-1,9.151919384E-1
5.213473923E0,4.425099865E-2,2.465090007E-1,-7.230039835E-1,7.651533170E-1
5.218485616E0,8.676400036E-2,2.560519874E-1,-5.469040275E-1,6.100775584E-1
5.223497064E0,8.798199892E-2,3.016889989E-1,-3.875640035E-1,4.989618633E-1
5.228508678E0,5.858699977E-2,3.713760078E-1,-2.371329963E-1,4.445049310E-1
5.233520141E0,-2.134599909E-2,4.601899981E-1,-1.253280044E-1,4.774281043E-1
5.238531832E0,-7.604800165E-2,5.729370117E-1,-1.616100036E-2,5.781879417E-1
5.243543449E0,-1.689890027E-1,6.807680130E-1,2.530400082E-2,7.018850782E-1
5.248554896E0,-2.527689934E-1,7.861149907E-1,7.535099983E-2,8.291843678E-1
5.253566509E0,-3.603320122E-1,8.506129980E-1,6.596200168E-2,9.261385518E-1
5.258578201E0,-4.817039967E-1,8.718680143E-1,4.517500103E-2,9.971125090E-1
5.263589660E0,-5.795519948E-1,8.140649796E-1,2.939599939E-2,9.997231769E-1
5.268601273E0,-6.639890075E-1,6.939690113E-1,-2.443999983E-3,9.604584134E-1
5.273612971E0,-6.889960170E-1,5.093150139E-1,-5.725000054E-3,8.568255776E-1
5.278624434E0,-6.612340212E-1,3.127740026E-1,-1.829699986E-2,7.317053968E-1
5.283636047E0,-6.240969896E-1,9.956700355E-2,-3.063599952E-2,6.327315427E-1
5.288647502E0,-5.874739885E-1,-9.671700001E-2,3.661999945E-3,5.953933788E-1
5.293659423E0,-4.958319962E-1,-3.022840023E-1,8.530499786E-2,5.869428670E-1
5.298670810E0,-3.812339902E-1,-4.860590100E-1,1.525450051E-1,6.362882170E-1
5.303682271E0,-2.723189890E-1,-6.456680298E-1,2.102629989E-1,7.316114851E-1
5.308693962E0,-1.295839995E-1,-7.834730148E-1,2.841739953E-1,8.434315844E-1
5.313705586E0,1.799100079E-2,-8.875730038E-1,3.225620091E-1,9.445399742E-1
5.318717278E0,1.888599992E-1,-9.555810094E-1,3.661060035E-1,1.040594431E0
5.323728742E0,3.405550122E-1,-1.009101033E0,3.751060069E-1,1.129144423E0
5.328740360E0,4.850719869E-1,-1.044520020E0,4.039109945E-1,1.220434757E0
5.333751824E0,5.967209935E-1,-1.087066054E0,4.442360103E-1,1.317244922E0
5.338763437E0,7.040380239E-1,-1.122372031E0,5.152189732E-1,1.421562206E0
5.343775130E0,8.118240237E-1,-1.140874028E0,5.953930020E-1,1.521559930E0
5.348786593E0,9.056680202E-1,-1.183258057E0,6.896600127E-1,1.641939440E0
5.353798206E0,9.783390164E-1,-1.204064012E0,7.288039923E-1,1.714080697E0
5.358809899E0,9.961450100E-1,-1.251150012E0,7.535020113E-1,1.767893242E0
5.363821357E0,1.021167040E0,-1.283831000E0,7.899580002E-1,1.820724527E0
5.368832971E0,1.005437970E0,-1.311689973E0,8.239309788E-1,1.846699314E0
5.373844458E0,9.871749878E-1,-1.337136030E0,8.341199756E-1,1.859624519E0
5.378856072E0,9.662439823E-1,-1.352987051E0,8.826699853E-1,1.882367577E0
5.383867773E0,9.641360044E-1,-1.371214986E0,9.792159796E-1,1.941301807E0
5.388879237E0,9.545009732E-1,-1.382251978E0,1.085469961E0,1.999984419E0
5.393890865E0,9.397420287E-1,-1.395676970E0,1.194314957E0,2.063351037E0
5.398902557E0,9.269440174E-1,-1.397142053E0,1.329743028E0,2.139964403E0
5.403914006E0,9.496309757E-1,-1.372292042E0,1.451133966E0,2.211509490E0
5.408925619E0,1.019731998E0,-1.316336989E0,1.524875998E0,2.257840391E0
5.413937312E0,1.045470953E0,-1.234812975E0,1.475106001E0,2.189454341E0
5.418948775E0,1.100466013E0,-1.134096026E0,1.373990059E0,2.094050602E0
5.423960388E0,1.160580039E0,-1.026450038E0,1.190430045E0,1.953885718E0
5.428971838E0,1.244179010E0,-9.285899997E-1,1.021378994E0,1.858352993E0
5.433983451E0,1.318003058E0,-8.213629723E-1,8.639289737E-1,1.777116334E0
5.438995144E0,1.356719971E0,-7.404090166E-1,7.706930041E-1,1.727096493E0
5.444006621E0,1.379654050E0,-6.762740016E-1,6.420770288E-1,1.665249151E0
5.449018235E0,1.391841054E0,-5.977389812E-1,5.440329909E-1,1.609498464E0
5.454029698E0,1.372442007E0,-5.406169891E-1,4.710710049E-1,1.548473985E0
5.459041619E0,1.298951983E0,-4.954339862E-1,3.830679953E-1,1.442037510E0
5.464053083E0,1.202908993E0,-4.503600001E-1,2.736330032E-1,1.313274227E0
5.469064696E0,1.052402973E0,-3.627470136E-1,9.275099635E-2,1.117022901E0
5.474076160E0,8.373079896E-1,-2.401160002E-1,-1.339190006E-1,8.812914738E-1
5.479087788E0,5.803539753E-1,-1.063110009E-1,-3.143830001E-1,6.685427708E-1
5.484099481E0,2.478460073E-1,2.223500051E-2,-3.870989978E-1,4.601822169E-1
5.489110944E0,-1.164780036E-1,1.313800067E-1,-3.874090016E-1,4.253393539E-1
5.494122538E0,-4.700709879E-1,2.852250040E-1,-4.864839911E-1,7.341571427E-1
5.499134001E0,-6.556419730E-1,5.218250155E-1,-6.722509861E-1,1.074285405E0
5.504145696E0,-7.567059994E-1,7.675309777E-1,-7.614830136E-1,1.319683353E0
5.509157314E0,-1.029093981E0,1.013062954E0,-7.759910226E-1,1.639357507E0
5.514168746E0,-1.465996027E0,1.327391028E0,-7.512149811E-1,2.115522451E0
5.519180360E0,-1.827811003E0,1.696972966E0,-7.846580148E-1,2.614631620E0
5.524192052E0,-2.102699995E0,2.129004002E0,-6.920650005E-1,3.071312305E0
5.529203507E0,-2.326354980E0,2.537363052E0,-5.429080129E-1,3.484951630E0
5.534215120E0,-2.491379023E0,2.950767040E0,-6.386510134E-1,3.914316119E0
5.539226821E0,-2.614336014E0,3.307024002E0,-8.669319749E-1,4.303804316E0
5.544238285E0,-2.831600904E0,3.584600925E0,-1.007539034E0,4.677869428E0
5.549249975E0,-3.028219938E0,3.807441950E0,-1.192090034E0,5.008773188E0
5.554261593E0,-3.211277962E0,4.011411190E0,-1.374889970E0,5.319215009E0
5.559273054E0,-3.473748922E0,4.100780964E0,-1.505622029E0,5.581239449E0
5.564284639E0,-3.765216112E0,4.051562786E0,-1.588718057E0,5.754653634E0
5.569296331E0,-4.023320198E0,3.892399073E0,-1.609395981E0,5.824777367E0
5.574307794E0,-4.243134022E0,3.654356956E0,-1.536393046E0,5.806807616E0
5.579319408E0,-4.388630867E0,3.330157995E0,-1.515140057E0,5.713640044E0
5.584330862E0,-4.462055206E0,2.984394073E0,-1.521731019E0,5.579624534E0
5.589342553E0,-4.424923897E0,2.612246037E0,-1.563269973E0,5.370995611E0
5.594354170E0,-4.305798054E0,2.263964891E0,-1.685325980E0,5.148374265E0
5.599365860E0,-4.207283020E0,1.915578961E0,-1.883041978E0,4.991645045E0
5.604377324E0,-4.107783794E0,1.579043984E0,-1.998522997E0,4.833359264E0
5.609388937E0,-4.016788006E0,1.290228963E0,-1.998263955E0,4.668226161E0
5.614400386E0,-3.943845034E0,1.015581965E0,-1.882053971E0,4.486362394E0
5.619412076E0,-3.869780064E0,7.598180175E-1,-1.704663992E0,4.296324067E0
5.624423463E0,-3.638293982E0,5.171390176E-1,-1.478754044E0,3.961228267E0
5.629435153E0,-3.334031105E0,3.595750034E-1,-1.349593043E0,3.614755728E0
5.634446769E0,-2.969161987E0,2.984850109E-1,-1.309456944E0,3.258787151E0
5.639458461E0,-2.571877003E0,3.145430088E-1,-1.286131978E0,2.892684581E0
5.644469924E0,-2.227314949E0,3.787049949E-1,-1.290971041E0,2.602105990E0
5.649481538E0,-1.941223979E0,4.573459923E-1,-1.295514941E0,2.378208329E0
5.654492987E0,-1.700387001E0,5.410079956E-1,-1.269891024E0,2.190120731E0
5.659504678E0,-1.503548980E0,6.417319775E-1,-1.229444027E0,2.045485781E0
5.664516290E0,-1.333165050E0,7.498549819E-1,-1.202738047E0,1.945813545E0
5.669527752E0,-1.139624953E0,8.943229914E-1,-1.136212945E0,1.841069934E0
5.674539442E0,-9.860339761E-1,1.024930000E0,-1.054574966E0,1.770557219E0
5.679551059E0,-8.569759727E-1,1.123214006E0,-1.099769950E0,1.790394220E0
5.684562521E0,-7.674990296E-1,1.176074982E0,-1.150056958E0,1.815168899E0
5.689574230E0,-6.840389967E-1,1.183565021E0,-1.155529976E0,1.789967886E0
5.694585848E0,-6.447399855E-1,1.152873993E0,-1.142632961E0,1.746544639E0
5.699597309E0,-6.080989838E-1,1.039878011E0,-1.082070947E0,1.619261617E0
5.704608923E0,-6.454179883E-1,8.460990191E-1,-1.005633950E0,1.464154217E0
5.709620415E0,-6.870419979E-1,6.052740216E-1,-8.791210055E-1,1.269345142E0
5.714632105E0,-7.327060103E-1,3.124560118E-1,-7.806559801E-1,1.115307409E0
5.719643723E0,-7.661269903E-1,2.755500004E-2,-6.653109789E-1,1.015060856E0
5.724655198E0,-7.805520296E-1,-2.807050049E-1,-5.822119713E-1,1.013423678E0
5.729666812E0,-7.625610232E-1,-5.856900215E-1,-4.377009869E-1,1.056463094E0
5.734678504E0,-7.524999976E-1,-8.996319771E-1,-3.496179879E-1,1.223857295E0
5.739689968E0,-7.191010118E-1,-1.181311011E0,-3.495500088E-1,1.426459666E0
5.744701596E0,-6.487950087E-1,-1.441494942E0,-4.569070041E-1,1.645480672E0
5.749713060E0,-6.132820249E-1,-1.711274981E0,-6.550499797E-1,1.932270007E0
5.754724769E0,-6.293249726E-1,-1.964305043E0,-7.909510136E-1,2.209105640E0
5.759736386E0,-6.731839776E-1,-2.188644886E0,-8.836269975E-1,2.454412308E0
5.764747848E0,-7.399989963E-1,-2.393868923E0,-9.449809790E-1,2.677908883E0
5.769759538E0,-8.418689966E-1,-2.551258087E0,-9.391239882E-1,2.845982273E0
5.774771170E0,-9.621800184E-1,-2.665620089E0,-9.018250108E-1,2.973988768E0
5.779782631E0,-1.091531992E0,-2.763283968E0,-8.976309896E-1,3.103694858E0
5.784794245E0,-1.239624977E0,-2.777230024E0,-8.308939934E-1,3.152786311E0
5.789805961E0,-1.294149041E0,-2.757690907E0,-7.352849841E-1,3.133739760E0
5.794817424E0,-1.346063972E0,-2.721395016E0,-6.803219914E-1,3.111385071E0
5.799829053E0,-1.419512987E0,-2.680305004E0,-5.750799775E-1,3.087032396E0
5.804840745E0,-1.502828002E0,-2.596163988E0,-4.576689899E-1,3.034472007E0
5.809852209E0,-1.510102034E0,-2.485740900E0,-4.619770050E-1,2.944951396E0
5.814863822E0,-1.462952971E0,-2.353880882E0,-4.727889895E-1,2.811497116E0
5.819875271E0,-1.452448964E0,-2.231720924E0,-4.683920145E-1,2.703623006E0
5.824886961E0,-1.438099027E0,-2.121692896E0,-4.126609862E-1,2.596150736E0
5.829898569E0,-1.336205006E0,-2.054913044E0,-3.725419939E-1,2.479294047E0
5.834910260E0,-1.338183999E0,-2.038562059E0,-3.767499924E-1,2.467470819E0
5.839921723E0,-1.346107006E0,-2.020010948E0,-4.419780076E-1,2.467345307E0
5.844933336E0,-1.264312029E0,-2.004023075E0,-4.941709936E-1,2.420495479E0
5.849944799E0,-1.159682989E0,-1.978607059E0,-5.143619776E-1,2.350386941E0
5.854956409E0,-1.096549034E0,-1.936576009E0,-5.695559978E-1,2.297202746E0
5.859968101E0,-1.005262017E0,-1.904253960E0,-5.879619718E-1,2.232136677E0
5.864979564E0,-9.167360067E-1,-1.860095978E0,-5.791559815E-1,2.153086994E0
5.869991173E0,-9.191799760E-1,-1.835204005E0,-5.359519720E-1,2.121346291E0
5.875002865E0,-1.084357977E0,-1.812800050E0,-4.848540127E-1,2.167293163E0
5.880014329E0,-1.156376958E0,-1.735445023E0,-4.019959867E-1,2.123812108E0
5.885025942E0,-1.140030980E0,-1.643823028E0,-3.232089877E-1,2.026397994E0
5.890037391E0,-1.085345030E0,-1.554664016E0,-2.127230018E-1,1.907932156E0
5.895049081E0,-1.032845974E0,-1.465543985E0,-1.592489928E-1,1.799986172E0
5.900060693E0,-9.728339911E-1,-1.381224990E0,-1.438200027E-1,1.695544939E0
5.905072155E0,-1.007995009E0,-1.308853984E0,-1.187520027E-1,1.656277371E0
5.910083768E0,-1.028434038E0,-1.176609039E0,-8.195099980E-2,1.564864649E0
5.915095461E0,-9.668560028E-1,-1.033916950E0,-4.337099940E-2,1.416218851E0
5.920106929E0,-9.209920168E-1,-9.317119718E-1,-1.498099975E-2,1.310167136E0
5.925118619E0,-8.831149936E-1,-8.748869896E-1,-1.989400014E-2,1.243267915E0
5.930130237E0,-8.736010194E-1,-8.419330120E-1,-3.862699866E-2,1.213887138E0
5.935141693E0,-8.709200025E-1,-8.088110089E-1,-3.606100008E-2,1.189107772E0
5.940153307E0,-8.820719719E-1,-7.634260058E-1,-1.184000052E-3,1.166564028E0
5.945165004E0,-9.529500008E-1,-7.392799854E-1,1.392500009E-2,1.206168523E0
5.950176468E0,-1.003340006E0,-7.051140070E-1,6.540700048E-2,1.228069626E0
5.955188081E0,-9.782590270E-1,-7.063369751E-1,1.473020017E-1,1.215565928E0
5.960199763E0,-9.472360015E-1,-7.333970070E-1,2.236749977E-1,1.218670471E0
5.965211227E0,-9.357190132E-1,-7.839660048E-1,2.713670135E-1,1.250525020E0
5.970222840E0,-9.384859800E-1,-8.412230015E-1,3.306710124E-1,1.302979429E0
5.975234280E0,-9.596750140E-1,-9.051240087E-1,3.872320056E-1,1.374836074E0
5.980245893E0,-9.940479994E-1,-9.613900185E-1,4.204269946E-1,1.445393044E0
5.985257586E0,-1.052592039E0,-1.041228056E0,4.100989997E-1,1.536322575E0
5.990269049E0,-1.109233022E0,-1.103891969E0,4.180809855E-1,1.619804644E0
5.995280673E0,-1.154510975E0,-1.185477018E0,3.765619993E-1,1.697071092E0
6.000292365E0,-1.177911043E0,-1.255743980E0,3.665870130E-1,1.760327642E0
6.005303823E0,-1.149130940E0,-1.318820953E0,3.442960083E-1,1.782787247E0
6.010315437E0,-1.068148017E0,-1.360342026E0,3.073050082E-1,1.756674979E0
6.015326900E0,-9.469230175E-1,-1.334795952E0,2.576520145E-1,1.656722063E0
6.020338610E0,-8.116589785E-1,-1.287613034E0,2.046730071E-1,1.535782753E0
6.025350227E0,-6.456739902E-1,-1.166136026E0,2.032759935E-1,1.348365404E0
6.030361675E0,-4.732620120E-1,-1.024991035E0,1.831600070E-1,1.143735609E0
6.035373288E0,-3.350329995E-1,-8.555819988E-1,1.563220024E-1,9.320430440E-1
6.040384980E0,-1.905360073E-1,-6.555330157E-1,1.369799972E-1,6.962693620E-1
6.045396430E0,-6.291999668E-2,-4.056920111E-1,1.086290032E-1,4.246706891E-1
6.050408043E0,3.006199934E-2,-1.823920012E-1,1.086179987E-1,2.144025082E-1
6.055419497E0,1.012860015E-1,3.842899948E-2,1.197699979E-1,1.614945649E-1
6.060431187E0,1.631969959E-1,2.640869915E-1,1.557420045E-1,3.473194071E-1
6.065442815E0,2.278780043E-1,4.562320113E-1,1.692779958E-1,5.373370198E-1
6.070454505E0,3.141759932E-1,6.291170120E-1,1.609890014E-1,7.213960272E-1
6.075465906E0,3.775480092E-1,7.468309999E-1,1.220400035E-1,8.456907260E-1
6.080477596E0,3.907409906E-1,8.139989972E-1,8.821000345E-3,9.029677177E-1
6.085489059E0,3.621639907E-1,8.260750175E-1,-7.208500057E-2,9.048529925E-1
6.090500678E0,3.022390008E-1,8.382800221E-1,-1.120290011E-1,8.981159759E-1
6.095512370E0,2.001139969E-1,8.652150035E-1,-1.050229967E-1,8.942440628E-1
6.100523838E0,6.855099648E-2,9.000769854E-1,-7.881999947E-3,9.027180870E-1
6.105535451E0,-5.916300043E-2,9.406269789E-1,1.376300007E-1,9.524817012E-1
6.110547143E0,-2.126670033E-1,9.621009827E-1,3.165870011E-1,1.034936174E0
6.115558607E0,-3.657140136E-1,9.932649732E-1,4.807989895E-1,1.162535898E0
6.120570220E0,-5.015040040E-1,1.024587035E0,6.156139970E-1,1.296250536E0
6.125581684E0,-6.295459867E-1,1.060873032E0,7.258179784E-1,1.431290144E0
6.130593374E0,-7.162439823E-1,1.114133000E0,7.872040272E-1,1.540775118E0
6.135604987E0,-7.733790278E-1,1.222725987E0,8.042320013E-1,1.655283381E0
6.140616448E0,-7.697489858E-1,1.374758959E0,6.976019740E-1,1.723114683E0
6.145628067E0,-7.078120112E-1,1.565495014E0,4.598670006E-1,1.778552822E0
6.150639530E0,-5.876290202E-1,1.797364950E0,1.243859977E-1,1.895072691E0
6.155651220E0,-4.357100129E-1,2.106266975E0,-1.509359926E-1,2.156150612E0
6.160662848E0,-2.953040004E-1,2.480151892E0,-3.248830140E-1,2.518711343E0
6.165674309E0,-1.831829995E-1,2.837548018E0,-4.541540146E-1,2.879494857E0
6.170686000E0,-1.616159976E-1,3.147207975E0,-4.039219916E-1,3.177135620E0
6.175697617E0,-3.216379881E-1,3.337191105E0,-1.661980003E-1,3.356771848E0
6.180709079E0,-5.676519871E-1,3.378602982E0,-3.317999886E-3,3.425959412E0
6.185720692E0,-7.324079871E-1,3.331172943E0,-1.422500014E-1,3.413703224E0
6.190732384E0,-7.894250154E-1,3.187747955E0,-3.247649968E-1,3.300060785E0
6.195743848E0,-7.768359780E-1,2.998682022E0,-5.035169721E-1,3.138327158E0
6.200755466E0,-7.258300185E-1,2.852626085E0,-8.251580000E-1,3.056990436E0
6.205767159E0,-7.825270295E-1,2.797552109E0,-8.955399990E-1,3.039841812E0
6.210778626E0,-8.441280127E-1,2.831192017E0,-9.330809712E-1,3.098199547E0
6.215790240E0,-8.052060008E-1,2.886636972E0,-1.041080952E0,3.172519387E0
6.220801947E0,-8.090919852E-1,2.913671970E0,-9.491509795E-1,3.169385078E0
6.225813410E0,-7.769520283E-1,2.936167002E0,-7.958109975E-1,3.139752579E0
6.230825024E0,-5.581769943E-1,2.937274933E0,-6.165109873E-1,3.052741618E0
6.235836501E0,-3.203229904E-1,2.852229118E0,-4.703449905E-1,2.908443256E0
6.240848115E0,2.496599965E-2,2.712023020E0,-4.238579869E-1,2.745058789E0
6.245859807E0,4.440430105E-1,2.497387886E0,-4.406490028E-1,2.574546949E0
6.250871271E0,8.291710019E-1,2.229813099E0,-4.631679952E-1,2.423657484E0
6.255882884E0,1.189867973E0,1.964282036E0,-5.486630201E-1,2.361190551E0
6.260894343E0,1.530933022E0,1.655303955E0,-7.568910122E-1,2.378375729E0
6.265906033E0,1.790092945E0,1.365057945E0,-1.011181951E0,2.467854308E0
6.270917650E0,1.916424990E0,1.048447967E0,-1.260437012E0,2.522028814E0
6.275929107E0,1.956827998E0,7.424709797E-1,-1.450219035E0,2.546286359E0
6.280940797E0,1.885684967E0,4.308640063E-1,-1.600293040E0,2.510456015E0
6.285952415E0,1.769134998E0,1.620430052E-1,-1.678946018E0,2.444372375E0
6.290964105E0,1.634256005E0,-5.640000105E-2,-1.697428942E0,2.356955380E0
6.295975568E0,1.463273048E0,-2.096710056E-1,-1.662332058E0,2.224517434E0
6.300987168E0,1.296885967E0,-3.189879954E-1,-1.575518012E0,2.065411233E0
6.305998631E0,1.149209023E0,-3.411430120E-1,-1.454915047E0,1.885162520E0
6.311010231E0,1.008270025E0,-2.856079936E-1,-1.311069012E0,1.678416612E0
6.316021694E0,8.625109792E-1,-1.836729944E-1,-1.195894003E0,1.485874633E0
6.321033385E0,6.773080230E-1,-5.461499840E-2,-1.108589053E0,1.300268682E0
6.326045076E0,4.699630141E-1,7.743000239E-2,-1.064774990E0,1.166450350E0
6.331056463E0,2.455769926E-1,1.716859937E-1,-1.044752955E0,1.086872981E0
6.336068076E0,2.296400070E-2,2.519519925E-1,-1.047884941E0,1.077993507E0
6.341079768E0,-1.190309972E-1,3.109759986E-1,-1.050503969E0,1.102013176E0
6.346091237E0,-2.104929984E-1,3.318659961E-1,-1.085610032E0,1.154552504E0
6.351102850E0,-2.786430120E-1,3.218869865E-1,-1.091753960E0,1.171827576E0
6.356114543E0,-2.962380052E-1,3.004879951E-1,-1.014129043E0,1.098411447E0
6.361126011E0,-2.762359977E-1,2.748610079E-1,-9.108819962E-1,9.907375591E-1
6.366137625E0,-2.333460003E-1,1.996649951E-1,-7.665730119E-1,8.258030326E-1
6.371149093E0,-2.560150027E-1,-3.055699915E-2,-7.083849907E-1,7.538479335E-1
6.376160783E0,-1.849319935E-1,-7.129500061E-2,-6.106730103E-1,6.420314205E-1
6.381172401E0,-3.693800047E-2,-7.581400126E-2,-4.884009957E-1,4.956286022E-1
6.386183862E0,3.025499918E-2,-1.014640033E-1,-3.817819953E-1,3.961916214E-1
6.391195553E0,1.024739966E-1,-1.409990042E-1,-2.534160018E-1,3.075732582E-1
6.396207179E0,1.563100070E-1,-2.209600061E-1,-1.852280051E-1,3.279718836E-1
6.401218641E0,1.601489931E-1,-3.794449866E-1,-1.131270006E-1,4.271111285E-1
6.406230254E0,1.365610063E-1,-6.044239998E-1,-5.154100060E-2,6.217988056E-1
6.411241718E0,9.107799828E-2,-8.624389768E-1,-2.363899909E-2,8.675569103E-1
6.416253408E0,4.668200016E-2,-1.137447953E0,-7.604000159E-3,1.138430883E0
6.421265025E0,-1.695599966E-2,-1.436352015E0,-1.098699961E-2,1.436494111E0
6.426276478E0,-6.167899817E-2,-1.744837999E0,2.148599923E-2,1.746060019E0
6.431288168E0,-1.043229997E-1,-2.046195984E0,6.859000027E-2,2.050001434E0
6.436299772E0,-8.754900098E-2,-2.321305037E0,1.041079983E-1,2.325287160E0
6.441311233E0,-7.370900363E-2,-2.589342117E0,1.210590005E-1,2.593218251E0
6.446322855E0,-7.838999853E-3,-2.788100004E0,9.075500071E-2,2.789587703E0
6.451334548E0,2.140600048E-2,-2.931941032E0,2.271199971E-2,2.932107138E0
6.456346006E0,8.088900149E-2,-3.018435955E0,-8.338599652E-2,3.020670765E0
6.461357620E0,1.393419951E-1,-3.049973011E0,-2.014120072E-1,3.059790574E0
6.466369083E0,1.991830021E-1,-3.012136936E0,-2.743220031E-1,3.031154129E0
6.471380779E0,2.916460037E-1,-2.950352907E0,-2.785120010E-1,2.977785856E0
6.476392396E0,4.168759882E-1,-2.854983091E0,-2.550700009E-1,2.896510788E0
6.481403858E0,4.649490118E-1,-2.769113064E0,-2.277629972E-1,2.817097926E0
6.486415452E0,4.670279920E-1,-2.697526932E0,-2.587549984E-1,2.749858331E0
6.491427144E0,4.898959994E-1,-2.585213900E0,-3.480080068E-1,2.654136125E0
6.496438608E0,4.785229862E-1,-2.472899914E0,-3.467209935E-1,2.542525060E0
6.501450235E0,3.753179908E-1,-2.394124031E0,-2.762160003E-1,2.439054889E0
6.506461699E0,2.879090011E-1,-2.322619915E0,-2.246119976E-1,2.351149806E0
6.511473389E0,2.211399972E-1,-2.241604090E0,-2.782579958E-1,2.269607743E0
6.516485006E0,2.087289989E-1,-2.143836975E0,-3.537960052E-1,2.182836774E0
6.521496697E0,2.222100049E-1,-2.019668102E0,-4.564299881E-1,2.082490063E0
6.526508083E0,1.898909956E-1,-1.907348037E0,-5.362079740E-1,1.990365322E0
6.531519774E0,2.579019964E-1,-1.797266006E0,-6.052880287E-1,1.913910169E0
6.536531242E0,3.163950145E-1,-1.703732014E0,-5.849450231E-1,1.828925712E0
6.541542856E0,-2.711949944E-1,-1.638736010E0,-5.443630219E-1,1.747951239E0
6.546554319E0,-1.166030049E0,-1.724537969E0,-3.852880001E-1,2.117098043E0
6.551565919E0,9.080380201E-1,-1.272050977E0,5.818099901E-2,1.563979463E0
6.556577611E0,9.117599726E-1,-1.427243948E0,2.649300098E-1,1.714211027E0
6.561589075E0,7.000420094E-1,-1.431540012E0,2.492209971E-1,1.612909398E0
6.566600765E0,6.555230021E-1,-1.265797019E0,2.837060094E-1,1.453424095E0
6.571612371E0,6.489920020E-1,-1.123824954E0,2.868869901E-1,1.329088895E0
6.576623833E0,5.390080214E-1,-1.070250988E0,2.898699939E-1,1.232879328E0
6.581635446E0,4.328869879E-1,-1.033311963E0,2.519739866E-1,1.148309909E0
6.586646901E0,2.907780111E-1,-1.009477019E0,1.995819956E-1,1.069312245E0
6.591658514E0,2.347619981E-1,-9.996960163E-1,2.109300047E-1,1.048330476E0
6.596670206E0,1.998029947E-1,-1.046201944E0,3.035239875E-1,1.107513682E0
6.601681655E0,1.793870032E-1,-1.107028961E0,3.983770013E-1,1.190124806E0
6.606693345E0,2.308579981E-1,-1.179782033E0,4.787470102E-1,1.293978269E0
6.611704954E0,2.441339940E-1,-1.286016941E0,4.346590042E-1,1.379264090E0
6.616716415E0,2.359369993E-1,-1.387434959E0,3.641310036E-1,1.453696468E0
6.621728029E0,1.632180065E-1,-1.486405015E0,3.316380084E-1,1.531673514E0
6.626739725E0,3.775199875E-2,-1.561421037E0,3.014059961E-1,1.590693698E0
6.631751189E0,-8.793000132E-2,-1.617300034E0,3.023290038E-1,1.647663167E0
6.636762807E0,-1.996130049E-1,-1.649260998E0,2.650089860E-1,1.682301089E0
6.641774270E0,-2.925280035E-1,-1.659701943E0,2.158170044E-1,1.699046837E0
6.646785961E0,-3.235259950E-1,-1.584015965E0,2.241169959E-1,1.632177710E0
6.651797554E0,-4.049269855E-1,-1.479632020E0,2.589100003E-1,1.555734928E0
6.656809245E0,-4.338119924E-1,-1.293910980E0,4.183210135E-1,1.427372040E0
6.661820708E0,-5.015230179E-1,-1.091521978E0,5.536190271E-1,1.322663825E0
6.666832321E0,-5.566290021E-1,-8.716779947E-1,7.191759944E-1,1.259711270E0
6.671843785E0,-5.022529960E-1,-6.183289886E-1,7.938870192E-1,1.124653462E0
6.676855369E0,-3.576579988E-1,-3.276000023E-1,7.247959971E-1,8.721067842E-1
6.681866833E0,-2.225060016E-1,-6.925199926E-2,5.666279793E-1,6.126761192E-1
6.686878528E0,-9.391800314E-2,1.758469939E-1,3.933880031E-1,4.410180014E-1
6.691890221E0,4.939199984E-2,3.813090026E-1,1.956190020E-1,4.313964755E-1
6.696901838E0,2.327370048E-1,5.641779900E-1,6.447199732E-2,6.136936990E-1
6.701913286E0,3.225390017E-1,7.349749804E-1,7.924800366E-2,8.065357248E-1
6.706924899E0,4.213869870E-1,8.609489799E-1,2.595889866E-1,9.930692729E-1
6.711936357E0,4.952020049E-1,9.726110101E-1,4.748089910E-1,1.190227197E0
6.716948048E0,5.664770007E-1,1.012388945E0,6.786270142E-1,1.344009744E0
6.721959670E0,6.447839737E-1,1.013771057E0,8.256350160E-1,1.457789871E0
6.726971132E0,5.554969907E-1,1.007855058E0,9.374110103E-1,1.484280339E0
6.731982730E0,-5.615999922E-2,9.348090291E-1,1.159824967E0,1.490709838E0
6.736994194E0,-4.838489890E-1,7.130690217E-1,1.357051969E0,1.607534547E0
6.742005884E0,-1.168309972E-1,7.423200011E-1,1.272822976E0,1.478095665E0
6.747017501E0,-1.104929969E-1,6.136999726E-1,1.057407975E0,1.227578097E0
6.752028963E0,-8.172199875E-2,4.194149971E-1,7.855539918E-1,8.942496849E-1
6.757040576E0,-5.862800032E-2,1.619520038E-1,5.069339871E-1,5.353949582E-1
6.762052050E0,-1.288889945E-1,-7.747600228E-2,1.870139986E-1,2.399773729E-1
6.767063740E0,-2.663069963E-1,-2.727429867E-1,-1.656610072E-1,4.156341208E-1
6.772075348E0,-3.691940010E-1,-4.002560079E-1,-5.449669957E-1,7.703882843E-1
6.777086809E0,-4.554030001E-1,-3.882780075E-1,-8.981850147E-1,1.079299784E0
6.782098499E0,-5.332149863E-1,-2.097660005E-1,-1.104765058E0,1.244518312E0
6.787110131E0,-5.947629809E-1,2.103019953E-1,-1.133494973E0,1.297220408E0
6.792121592E0,-1.239681005E0,7.120969892E-1,-7.280070186E-1,1.604333300E0
6.797133283E0,-8.567849994E-1,1.527608991E0,-2.500320077E-1,1.769233102E0
6.802144900E0,-7.526720166E-1,2.237560987E0,4.950349927E-1,2.412105715E0
6.807156362E0,-7.138400078E-1,2.738961935E0,1.258952975E0,3.097812556E0
6.812168052E0,-6.270200014E-1,3.027087927E0,1.811825037E0,3.583172528E0
6.817179439E0,-3.744420111E-1,3.221679926E0,1.990522981E0,3.805471075E0
6.822191125E0,-7.522899657E-2,3.378001928E0,1.860888004E0,3.857390387E0
6.827202740E0,2.494499981E-1,3.455583096E0,1.493695021E0,3.772850997E0
6.832214204E0,3.342719972E-1,3.476155043E0,1.043496966E0,3.644760289E0
6.837225894E0,1.621340066E-1,3.497240067E0,5.671659708E-1,3.546639643E0
6.842237536E0,-2.826000005E-2,3.583493948E0,1.553239971E-1,3.586969898E0
6.847248997E0,-1.245670021E-1,3.689414978E0,-2.109449953E-1,3.697539399E0
6.852260611E0,-2.656430006E-1,3.724004030E0,-4.619019926E-1,3.761931109E0
6.857272312E0,-4.684900045E-1,3.512540102E0,-4.968279898E-1,3.578303914E0
6.862283775E0,-7.838060260E-1,3.167356968E0,-4.801900089E-1,3.298042524E0
6.867295413E0,-9.463490248E-1,2.889363050E0,-5.527099967E-1,3.090223884E0
6.872306876E0,-9.514939785E-1,2.589934111E0,-4.794819951E-1,2.800536104E0
6.877318567E0,-1.040848970E0,2.328788996E0,-2.719449997E-1,2.565263895E0
6.882330184E0,-1.023228049E0,2.124938011E0,-1.544509977E-1,2.363516935E0
6.887341646E0,-1.083078027E0,1.971079946E0,-6.186600029E-2,2.249898123E0
6.892353336E0,-1.141384959E0,1.891039014E0,-1.286800019E-2,2.208835386E0
6.897364723E0,-1.221721053E0,1.774657965E0,-7.887399942E-2,2.155976422E0
6.902376413E0,-1.637228966E0,1.609963059E0,-1.330559999E-1,2.300044269E0
6.907388028E0,-2.262656927E0,1.279387951E0,1.560959965E-1,2.603999973E0
6.912399492E0,-1.481351018E0,1.290387988E0,-5.210009813E-1,2.032472391E0
6.917411100E0,-1.545668960E0,1.085636973E0,-8.515849710E-1,2.071930774E0
6.922422870E0,-1.594671011E0,8.137789965E-1,-1.002187014E0,2.051728710E0
6.927434251E0,-1.756101012E0,5.415959954E-1,-1.083016038E0,2.133105887E0
6.932445865E0,-1.939154983E0,3.510220051E-1,-1.081889033E0,2.248115294E0
6.937457557E0,-1.969275951E0,2.062540054E-1,-1.056710005E0,2.244376199E0
6.942469030E0,-1.950492024E0,5.447100103E-2,-1.068838000E0,2.224814801E0
6.947480644E0,-2.062766075E0,-1.236250028E-1,-1.143033028E0,2.361527371E0
6.952492112E0,-1.953354955E0,-3.662379980E-1,-1.196581960E0,2.319813406E0
6.957503726E0,-1.681005001E0,-4.292050004E-1,-1.183393955E0,2.100099045E0
6.962515427E0,-1.394243956E0,-4.788840115E-1,-1.358428955E0,2.004638454E0
6.967526891E0,-1.139757991E0,-5.560770035E-1,-1.574795008E0,2.021941945E0
6.972538485E0,-9.444820285E-1,-6.481009722E-1,-1.715981960E0,2.063171166E0
6.977550177E0,-7.674210072E-1,-7.254019976E-1,-1.726762056E0,2.024067751E0
6.982561641E0,-5.665820241E-1,-7.586669922E-1,-1.627992988E0,1.883335329E0
6.987573268E0,-4.148170054E-1,-7.667469978E-1,-1.469462037E0,1.708593803E0
6.992584732E0,-3.291130066E-1,-8.352810144E-1,-1.222996950E0,1.517145769E0
6.997596422E0,-1.247970015E-1,-8.522830009E-1,-9.955819845E-1,1.316489306E0
7.002608055E0,-8.139099926E-2,-9.413049817E-1,-8.746460080E-1,1.287511244E0
7.007619516E0,5.797999911E-3,-1.003720999E0,-7.407209873E-1,1.247460236E0
7.012631130E0,1.032619998E-1,-1.056331992E0,-6.796230078E-1,1.260312561E0
7.017642822E0,1.296579987E-1,-1.137426019E0,-6.099489927E-1,1.297145681E0
7.022654285E0,7.303199917E-2,-1.266180992E0,-4.907779992E-1,1.359930521E0
7.027665899E0,3.135199845E-2,-1.416332960E0,-3.983410001E-1,1.471617326E0
7.032677367E0,-7.445400208E-2,-1.587972999E0,-2.675710022E-1,1.612078126E0
7.037688981E0,-1.511790007E-1,-1.735713005E0,-1.219519973E-1,1.746547170E0
7.042700673E0,-2.300859988E-1,-1.919451952E0,3.646500036E-2,1.933536930E0
7.047712122E0,-3.208479881E-1,-2.110560894E0,1.483120024E-1,2.139954946E0
7.052723735E0,-4.762420058E-1,-2.311520100E0,2.426819950E-1,2.372514735E0
7.057735423E0,-5.960090160E-1,-2.479298115E0,2.814039886E-1,2.565411096E0
7.062746887E0,-1.554133058E0,-2.573256969E0,2.548860013E-1,3.016943464E0
7.067758490E0,-1.298745990E0,-2.607976913E0,3.998000026E-1,2.940769418E0
7.072769954E0,-1.209459975E-1,-2.509145975E0,4.534290135E-1,2.552653390E0
7.077781644E0,-2.552370131E-1,-2.707258940E0,3.103109896E-1,2.736912459E0
7.082793262E0,-4.454880059E-1,-2.735573053E0,1.802809983E-1,2.777466603E0
7.087804723E0,-3.783130050E-1,-2.629947901E0,2.401870042E-1,2.667852411E0
7.092816413E0,-4.699760079E-1,-2.517204046E0,3.177849948E-1,2.580345124E0
7.097828021E0,-6.397370100E-1,-2.435657978E0,3.938570023E-1,2.548885358E0
7.102839482E0,-6.128649712E-1,-2.327928066E0,4.493550062E-1,2.448830839E0
7.107851096E0,-6.549940109E-1,-2.265801907E0,4.316459894E-1,2.397747629E0
7.112862807E0,-6.968610287E-1,-2.187011957E0,4.193570018E-1,2.333344571E0
7.117874194E0,-6.690809727E-1,-2.086735964E0,3.787949979E-1,2.223875442E0
7.122885884E0,-6.170330048E-1,-1.962537050E0,3.312950134E-1,2.083755693E0
7.127897576E0,-5.932679772E-1,-1.852650046E0,2.861750126E-1,1.966259196E0
7.132908963E0,-6.170549989E-1,-1.754672050E0,3.223069906E-1,1.887726853E0
7.137920430E0,-6.741849780E-1,-1.661463022E0,4.111390114E-1,1.839570614E0
7.142932120E0,-7.242479920E-1,-1.575481057E0,4.930759966E-1,1.802720071E0
7.147943730E0,-7.626169920E-1,-1.503942966E0,5.467389822E-1,1.772668225E0
7.152955194E0,-8.037589788E-1,-1.439717054E0,6.273779869E-1,1.764204305E0
7.157966884E0,-8.622490168E-1,-1.363693953E0,7.159519792E-1,1.765140731E0
7.162978501E0,-8.461430073E-1,-1.255478978E0,7.682740092E-1,1.697772189E0
7.167990192E0,-8.226119876E-1,-1.164273977E0,7.719830275E-1,1.621166916E0
7.173001598E0,-7.683990002E-1,-1.095092058E0,7.517089844E-1,1.534512964E0
7.178013060E0,-7.099339962E-1,-1.021924973E0,6.920800209E-1,1.423836958E0
7.183024750E0,-6.008570194E-1,-9.284399748E-1,5.990599990E-1,1.257737185E0
7.188036371E0,-5.769979954E-1,-8.551309705E-1,4.873340130E-1,1.140907579E0
7.193047834E0,-4.641599953E-1,-7.824370265E-1,4.868989885E-1,1.031854072E0
7.198059530E0,5.313400179E-2,-7.763299942E-1,4.588919878E-1,9.033788455E-1
7.203071147E0,2.381069958E-1,-8.233510256E-1,4.476639926E-1,9.669565156E-1
7.208082609E0,-9.770999663E-3,-8.406829834E-1,4.321520030E-1,9.453034988E-1
7.213094299E0,-1.871919930E-1,-7.516220212E-1,5.243530273E-1,9.353729750E-1
7.218105916E0,-1.072660014E-1,-5.929650068E-1,6.494920254E-1,8.859759508E-1
7.223117607E0,-3.746499866E-2,-4.561589956E-1,6.765409708E-1,8.168184257E-1
7.228128993E0,-7.461000234E-2,-3.745830059E-1,6.381509900E-1,7.437175316E-1
7.233140464E0,-1.111949980E-1,-3.024649918E-1,6.426749825E-1,7.189440396E-1
7.238152154E0,-1.052009985E-1,-2.565070093E-1,6.677039862E-1,7.229742105E-1
7.243163769E0,-1.599179953E-1,-2.387070060E-1,7.124109864E-1,7.681693912E-1
7.248175238E0,-2.478300035E-1,-2.754479945E-1,7.037469745E-1,7.953308194E-1
7.253186851E0,-3.215070069E-1,-3.215399981E-1,6.476860046E-1,7.913607815E-1
7.258198315E0,-4.092409909E-1,-3.933419883E-1,6.359279752E-1,8.524086450E-1
7.263210005E0,-4.574080110E-1,-4.573720098E-1,6.509820223E-1,9.177084707E-1
7.268221623E0,-4.719820023E-1,-5.161899924E-1,6.667299867E-1,9.663063665E-1
7.273233084E0,-4.864900112E-1,-6.008350253E-1,6.924290061E-1,1.037850272E0
7.278244708E0,-6.448829770E-1,-7.291809916E-1,8.324859738E-1,1.280863720E0
7.283256400E0,-4.999899864E-1,-8.194810152E-1,8.679080009E-1,1.294141962E0
7.288267863E0,-3.315559924E-1,-9.589759707E-1,7.153930068E-1,1.241511757E0
7.293279462E0,-2.089660019E-1,-1.173547029E0,4.362179935E-1,1.269316965E0
7.298290925E0,-1.751790047E-1,-1.337872028E0,2.335049957E-1,1.369347958E0
7.303302626E0,-1.870180070E-1,-1.415972948E0,1.882620007E-1,1.440624068E0
7.308314243E0,-2.014310062E-1,-1.379161000E0,2.312130034E-1,1.412840744E0
7.313325685E0,-2.089859992E-1,-1.263350010E0,3.288660049E-1,1.322074599E0
7.318337298E0,-1.912609935E-1,-1.129827023E0,3.893029988E-1,1.210225885E0
7.323348990E0,-2.077109963E-1,-9.889270067E-1,4.461160004E-1,1.104599461E0
7.328360459E0,-2.088910043E-1,-8.237460256E-1,5.483090281E-1,1.011353428E0
7.333372072E0,-1.812720001E-1,-6.511909962E-1,6.410930157E-1,9.316166090E-1
7.338383760E0,-1.485839933E-1,-5.242689848E-1,6.592900157E-1,8.553353122E-1
7.343395223E0,-1.222610027E-1,-4.095830023E-1,6.468250155E-1,7.752990322E-1
7.348406837E0,-9.017799795E-2,-3.386900127E-1,5.531539917E-1,6.548452753E-1
7.353418524E0,-6.163100153E-2,-2.951290011E-1,4.036140144E-1,5.037894206E-1
7.358429987E0,-6.432200223E-2,-2.622640133E-1,2.232300043E-1,3.503589123E-1
7.363441587E0,-7.629700005E-2,-2.424090058E-1,3.816900030E-2,2.569829389E-1
7.368453050E0,-7.659099996E-2,-2.187480032E-1,-1.187509969E-1,2.604201787E-1
7.373464649E0,-4.930299893E-2,-2.195229977E-1,-1.879729927E-1,2.931807944E-1
7.378476112E0,-8.547899872E-2,-2.346380055E-1,-2.326110005E-1,3.412763256E-1
7.383487788E0,-1.157979965E-1,-2.616649866E-1,-2.720060050E-1,3.947974265E-1
7.388499405E0,-1.543419957E-1,-3.096509874E-1,-2.485180050E-1,4.259887140E-1
7.393510867E0,-2.079720050E-1,-3.422020078E-1,-1.570280045E-1,4.301306350E-1
7.398522543E0,-2.322299927E-1,-3.593539894E-1,-4.585999995E-2,4.303129080E-1
7.403534160E0,-2.164739966E-1,-3.398999870E-1,5.454000086E-2,4.066541578E-1
7.408545608E0,-2.266310006E-1,-3.508639932E-1,1.186869964E-1,4.342277689E-1
7.413557221E0,-3.033680022E-1,-4.392330050E-1,2.448299974E-1,5.872814531E-1
7.418568680E0,-6.256719828E-1,-6.173260212E-1,4.937629998E-1,1.008146193E0
7.423580370E0,-7.705460191E-1,-4.055770040E-1,9.329299629E-2,8.757496542E-1
7.428591988E0,-2.628050148E-1,-2.697199956E-2,-3.139419854E-1,4.103090722E-1
7.433603674E0,-3.471300006E-2,1.115050018E-1,-3.558669984E-1,3.745392882E-1
7.438615137E0,-1.035599969E-2,7.719200104E-2,-1.644739956E-1,1.819822710E-1
7.443626751E0,8.619000204E-3,4.967499897E-2,5.631399900E-2,7.558544285E-2
7.448638228E0,6.131400168E-2,1.026260033E-1,2.599970102E-1,2.861641988E-1
7.453649919E0,1.492619962E-1,1.779900044E-1,4.059050083E-1,4.676734555E-1
7.458661536E0,1.715500057E-1,3.037840128E-1,4.384529889E-1,5.603170123E-1
7.463673002E0,1.784490049E-1,5.506070256E-1,3.290080130E-1,6.657765516E-1
7.468684615E0,1.375560015E-1,8.844779730E-1,1.517850012E-1,9.078885531E-1
7.473696056E0,8.237200230E-2,1.320345044E0,1.366399974E-2,1.322982573E0
7.478707746E0,2.994999988E-3,1.775501013E0,-2.867999952E-3,1.775505855E0
7.483719363E0,-2.873199992E-2,2.223510981E0,1.648399979E-2,2.223757705E0
7.488730835E0,-1.226269975E-1,2.623608112E0,3.393800184E-2,2.626691587E0
7.493742525E0,-2.406280041E-1,2.980465889E0,3.781399876E-2,2.990402757E0
7.498754142E0,-3.183729947E-1,3.296386957E0,8.573299646E-2,3.312835414E0
7.503765603E0,-3.247100115E-1,3.533009052E0,9.422700107E-2,3.549150361E0
7.508777217E0,-3.623070121E-1,3.704729080E0,1.015250012E-1,3.723787219E0
7.513788680E0,-3.617540002E-1,3.840178013E0,4.329600185E-2,3.857422413E0
7.518800370E0,-3.202430010E-1,3.905913115E0,-3.501699865E-2,3.919175810E0
7.523811984E0,-2.993740141E-1,3.866132021E0,-1.502220035E-1,3.880614417E0
7.528823445E0,-2.987560034E-1,3.699405909E0,-2.116229981E-1,3.717478113E0
7.533835140E0,-2.917160094E-1,3.489535093E0,-1.976899952E-1,3.507283098E0
7.538846526E0,-2.302840054E-1,3.272449970E0,-3.191170096E-1,3.296027184E0
7.543858140E0,-1.622609943E-1,3.053072929E0,-5.452640057E-1,3.105623251E0
7.548869842E0,1.083180010E-1,2.800390005E0,-7.545390129E-1,2.902282910E0
7.553881534E0,6.972999778E-3,2.504880905E0,-9.328759909E-1,2.672963634E0
7.558892930E0,1.741269976E-1,2.180841923E0,-9.775609970E-1,2.396250656E0
7.563904392E0,3.366720080E-1,1.823398948E0,-8.381839991E-1,2.034867116E0
7.568916082E0,4.107089937E-1,1.453959942E0,-7.416880131E-1,1.683087193E0
7.573927784E0,5.617539883E-1,1.088062048E0,-7.983530164E-1,1.461784561E0
7.578939171E0,7.580990195E-1,7.450940013E-1,-8.943420053E-1,1.389146075E0
7.583950861E0,8.585870266E-1,4.044449925E-1,-9.191730022E-1,1.321221572E0
7.588962490E0,8.564419746E-1,7.778400183E-2,-1.016406059E0,1.331399446E0
7.593973954E0,9.050679803E-1,-1.714300066E-1,-1.197183967E0,1.510558091E0
7.598985572E0,9.630740285E-1,-3.637189865E-1,-1.245205045E0,1.615654260E0
7.603997265E0,9.261710048E-1,-5.026320219E-1,-1.184911966E0,1.585701122E0
7.609008728E0,8.784959912E-1,-5.829420090E-1,-1.060968041E0,1.495737202E0
7.614020342E0,8.226760030E-1,-5.799930096E-1,-8.282660246E-1,1.303538379E0
7.619031810E0,7.149050236E-1,-5.005999804E-1,-5.402749777E-1,1.026443659E0
7.624043424E0,6.681010127E-1,-3.620330095E-1,-2.534289956E-1,8.010325330E-1
7.629055092E0,6.156499982E-1,-2.321069986E-1,-5.786500126E-2,6.604899223E-1
7.634066556E0,5.880020261E-1,-9.955199808E-2,5.830499902E-2,5.992131974E-1
7.639078246E0,6.333130002E-1,2.270900086E-2,7.391999662E-2,6.380166305E-1
7.644089848E0,7.080270052E-1,8.132900298E-2,-3.005399927E-2,7.133161218E-1
7.649101310E0,7.742949724E-1,8.287599683E-2,-2.582170069E-1,8.204127972E-1
7.654112909E0,7.929369807E-1,4.182500020E-2,-5.193279982E-1,9.487886781E-1
7.659124373E0,7.605760098E-1,-2.424399927E-2,-7.129709721E-1,1.042780535E0
7.664135986E0,7.482720017E-1,-5.050599948E-2,-8.736450076E-1,1.151398039E0
7.669147678E0,6.463739872E-1,-1.098449975E-1,-9.143760204E-1,1.125143885E0
7.674159142E0,5.246819854E-1,-1.728370041E-1,-8.594869971E-1,1.021705297E0
7.679170755E0,4.625400007E-1,-2.411680073E-1,-6.817039847E-1,8.583854512E-1
7.684182224E0,2.610029876E-1,-2.812510133E-1,-5.234609842E-1,6.490270364E-1
7.689193914E0,7.752060294E-1,-3.715460002E-1,-3.429139853E-1,9.255165150E-1
7.694205532E0,1.093489051E0,-3.131490052E-1,-1.996780038E-1,1.154838477E0
7.699216993E0,-3.042620122E-1,-5.223379731E-1,-9.120099992E-2,6.113345669E-1
7.704228684E0,-5.171269774E-1,-3.456929922E-1,-3.786600009E-2,6.231835922E-1
7.709240305E0,-6.138499975E-1,-3.069019914E-1,7.946299762E-2,6.908798881E-1
7.714251766E0,-5.350570083E-1,-3.086439967E-1,1.518280059E-1,6.360808614E-1
7.719263395E0,-4.082689881E-1,-3.801450133E-1,1.498299986E-1,5.776182358E-1
7.724274858E0,-2.783980072E-1,-5.240030289E-1,9.119500220E-2,6.003342012E-1
7.729286549E0,-2.077019960E-1,-6.922360063E-1,1.461299974E-2,7.228722897E-1
7.734298161E0,-9.710299969E-2,-8.920000196E-1,-4.955400154E-2,8.986370939E-1
7.739309623E0,-9.980999865E-3,-1.055392027E0,-1.206969991E-1,1.062318086E0
7.744321236E0,1.035009995E-1,-1.190054059E0,-3.043209910E-1,1.232701256E0
7.749332918E0,2.125290036E-1,-1.322234988E0,-5.264170170E-1,1.438954071E0
7.754344382E0,2.956239879E-1,-1.399198055E0,-6.820700169E-1,1.584414166E0
7.759356000E0,3.287779987E-1,-1.454414964E0,-8.384400010E-1,1.710672235E0
7.764367464E0,3.189969957E-1,-1.475890040E0,-9.430819750E-1,1.780284838E0
7.769379077E0,3.640980124E-1,-1.501886964E0,-1.013003945E0,1.847811897E0
7.774390770E0,3.922959864E-1,-1.544373989E0,-1.072106004E0,1.920520357E0
7.779402247E0,3.723190129E-1,-1.574612975E0,-1.111006975E0,1.962743989E0
7.784413861E0,3.709659874E-1,-1.587798953E0,-1.098757029E0,1.966211659E0
7.789425549E0,4.265399873E-1,-1.567234039E0,-9.920930266E-1,1.903262323E0
7.794437012E0,1.066205025E0,-1.548779964E0,-8.218759894E-1,2.052070339E0
7.799448712E0,4.724659920E-1,-1.575412989E0,-6.166740060E-1,1.756541212E0
7.804460329E0,3.187519908E-1,-1.451189995E0,-4.574570060E-1,1.554613182E0
7.809471791E0,2.599819899E-1,-1.350908995E0,-2.339340001E-1,1.395446475E0
7.814483404E0,2.338069975E-1,-1.332105041E0,-1.060369983E-1,1.356618368E0
7.819494868E0,2.186720073E-1,-1.315840960E0,-1.095729992E-1,1.338380036E0
7.824506481E0,1.618929952E-1,-1.290156007E0,-1.320959926E-1,1.306966417E0
7.829518188E0,1.494950056E-1,-1.262223959E0,-1.856279969E-1,1.284529421E0
7.834529652E0,1.814890057E-1,-1.229653955E0,-2.127539963E-1,1.261051692E0
7.839541274E0,2.340140045E-1,-1.202028036E0,-2.181659937E-1,1.243877146E0
7.844552967E0,2.355169952E-1,-1.174545050E0,-2.353309989E-1,1.220821448E0
7.849564421E0,2.121559978E-1,-1.147210956E0,-2.547250092E-1,1.194147384E0
7.854576035E0,2.357479930E-1,-1.079316020E0,-2.549099922E-1,1.133789792E0
7.859587498E0,4.931850135E-1,-9.827809930E-1,-2.455309927E-1,1.126665614E0
7.864599121E0,6.573749781E-1,-9.508100152E-1,-1.022790000E-1,1.160449284E0
7.869610584E0,6.572359800E-1,-9.378769994E-1,1.987699978E-2,1.145411496E0
7.874622274E0,6.645179987E-1,-9.123319983E-1,8.958899975E-2,1.132236740E0
7.879633892E0,6.374779940E-1,-9.037110209E-1,2.939200029E-2,1.106316271E0
7.884645353E0,5.308740139E-1,-8.594440222E-1,-6.841900200E-2,1.012498102E0
7.889657054E0,4.720970094E-1,-7.914749980E-1,-1.354569942E-1,9.314810014E-1
7.894668671E0,4.595299959E-1,-7.023509741E-1,-2.029539943E-1,8.635131914E-1
7.899680361E0,4.686299860E-1,-6.326119900E-1,-2.526049912E-1,8.268139303E-1
7.904691748E0,1.325970054E0,-6.457300186E-1,-1.447879970E-1,1.481933671E0
7.909703200E0,1.639523029E0,-4.863359928E-1,-6.547000259E-2,1.711386801E0
7.914714890E0,4.035249949E-1,-7.532730103E-1,-1.439359933E-1,8.665853793E-1
7.919726505E0,-1.257400028E-2,-6.123129725E-1,-1.664340049E-1,6.346538898E-1
7.924737969E0,-2.719300091E-1,-4.998149872E-1,8.818200231E-2,5.757925119E-1
7.929749582E0,-1.507489979E-1,-3.528909981E-1,3.249469995E-1,5.028398050E-1
7.934761289E0,-1.164949983E-1,-3.785530031E-1,3.202570081E-1,5.093505787E-1
7.939772752E0,-7.599800080E-2,-3.974960148E-1,2.995559871E-1,5.035003151E-1
7.944784362E0,1.054299995E-1,-4.504570067E-1,3.045290112E-1,5.538636280E-1
7.949795825E0,3.289580047E-1,-4.589149952E-1,2.767530084E-1,6.288152108E-1
7.954807510E0,3.132539988E-1,-4.676049948E-1,2.453289926E-1,6.139778607E-1
7.959819128E0,3.205940127E-1,-4.240620136E-1,2.224940062E-1,5.762921960E-1
7.964830574E0,3.272210062E-1,-3.761459887E-1,2.059040070E-1,5.394032367E-1
7.969842265E0,3.310709894E-1,-3.386139870E-1,1.371999979E-1,4.930428699E-1
7.974853877E0,2.951520085E-1,-3.280130029E-1,6.631000340E-2,4.462109980E-1
7.979865339E0,3.019129932E-1,-3.252019882E-1,4.714000039E-3,4.437679691E-1
7.984876952E0,3.479200006E-1,-3.188590109E-1,-1.295060068E-1,4.893783827E-1
7.989888416E0,3.998439908E-1,-3.039489985E-1,-2.438350022E-1,5.583150714E-1
7.994900029E0,4.090520144E-1,-2.652719915E-1,-2.856180072E-1,5.650401985E-1
7.999911721E0,4.109269977E-1,-2.385919988E-1,-1.718912005E0,1.783380392E0
8.004923195E0,3.219009936E-1,-8.085399866E-2,-1.470746994E0,1.507731521E0
8.009934808E0,4.705469906E-1,6.712900102E-2,1.604299992E-1,5.016558161E-1
8.014946515E0,3.351719975E-1,-1.157100033E-2,7.652879953E-1,8.355476478E-1
8.019957978E0,-1.775999926E-2,-2.072400004E-1,6.507710218E-1,6.832033066E-1
8.024969591E0,-3.971699998E-2,-2.382040024E-1,6.269869804E-1,6.718863449E-1
8.029981055E0,-9.844300151E-2,-2.528490126E-1,9.065520167E-1,9.462875920E-1
8.034992668E0,-2.418860048E-1,-3.231520057E-1,1.141626954E0,1.210887344E0
8.040004389E0,-3.863730133E-1,-3.989219964E-1,1.091246009E0,1.224434856E0
8.045015852E0,-3.692420125E-1,-4.184620082E-1,7.652390003E-1,9.471224017E-1
8.050027481E0,-2.606309950E-1,-3.695040047E-1,5.202990174E-1,6.893277831E-1
8.055038944E0,-1.957630068E-1,-2.797760069E-1,3.702130020E-1,5.036421703E-1
8.060050558E0,-2.104019970E-1,-2.295919955E-1,2.837199867E-1,4.212819905E-1
8.065062250E0,-2.163390070E-1,-1.992859989E-1,2.375410050E-1,3.780783046E-1
8.070073698E0,-1.744010001E-1,-1.721580029E-1,1.954780072E-1,3.134736641E-1
8.075085389E0,-9.747300297E-2,-1.440780014E-1,8.739899844E-2,1.946741938E-1
8.080097006E0,-3.287399933E-2,-7.722999901E-3,-3.056049943E-1,3.074650502E-1
8.085108468E0,6.410200149E-2,1.011800021E-1,-6.674320102E-1,6.780943501E-1
8.090120158E0,1.484950036E-1,1.540949941E-1,-8.117730021E-1,8.395066648E-1
