"Time (s)","Linear Acceleration x (m/s^2)","Linear Acceleration y (m/s^2)","Linear Acceleration z (m/s^2)","Absolute acceleration (m/s^2)"
4.448110300E-2,-4.275960028E-1,4.067229927E-1,2.335800044E-2,5.905992978E-1
4.949279700E-2,-5.030120015E-1,4.563750029E-1,-3.311000019E-2,6.799966831E-1
5.450450300E-2,-5.251139998E-1,5.083280206E-1,-8.305600286E-2,7.355544772E-1
5.951619600E-2,-5.231639743E-1,5.339900255E-1,-8.046399802E-2,7.518778799E-1
6.452786400E-2,-5.301709771E-1,4.734140038E-1,-1.524669975E-1,7.269444747E-1
6.953963100E-2,-5.156009793E-1,3.553250134E-1,-2.414620072E-1,6.711215508E-1
7.455132600E-2,-4.660939872E-1,2.492160052E-1,-2.820110023E-1,5.990679658E-1
7.956323600E-2,-4.243629873E-1,1.288069934E-1,-3.013109863E-1,5.361562244E-1
8.457493000E-2,-3.925000131E-1,-1.545500010E-2,-3.023090065E-1,4.956670785E-1
8.958662200E-2,-3.516210020E-1,-1.452260017E-1,-2.694849968E-1,4.662081982E-1
9.459830500E-2,-3.159500062E-1,-2.700729966E-1,-2.294130027E-1,4.747569439E-1
9.961007200E-2,-2.692170143E-1,-3.636569977E-1,-1.706019938E-1,4.835589447E-1
1.046217660E-1,-1.978729963E-1,-3.901129961E-1,-1.283079982E-1,4.558561339E-1
1.096334590E-1,-1.003319994E-1,-4.044550061E-1,-6.235999987E-2,4.213539268E-1
1.146451510E-1,-5.065000150E-3,-3.947249949E-1,8.055999875E-3,3.948396826E-1
1.196570530E-1,7.654099911E-2,-3.681310117E-1,6.917099655E-2,3.823134749E-1
1.246687470E-1,1.171759963E-1,-3.390739858E-1,1.098179966E-1,3.751817884E-1
1.296804250E-1,1.320330054E-1,-3.052060008E-1,1.309439987E-1,3.573929885E-1
1.346921170E-1,1.333809942E-1,-2.856580019E-1,1.609569937E-1,3.539747696E-1
1.397038090E-1,7.049100101E-2,-2.756569982E-1,1.880870014E-1,3.410754784E-1
1.447155760E-1,-3.860399872E-2,-2.728359997E-1,1.985989958E-1,3.396635285E-1
1.497272760E-1,-1.603240073E-1,-2.700189948E-1,2.022790015E-1,3.735382702E-1
1.547389680E-1,-2.967599928E-1,-2.840180099E-1,1.552200019E-1,4.391195422E-1
1.597506690E-1,-3.920620084E-1,-2.693929970E-1,8.449000120E-2,4.831394887E-1
1.647623620E-1,-4.614650011E-1,-2.596530020E-1,-2.477000002E-3,5.295052070E-1
1.697742830E-1,-5.080739856E-1,-2.499900013E-1,-9.151499718E-2,5.735932098E-1
1.747860440E-1,-5.696859956E-1,-2.451460063E-1,-1.711560041E-1,6.433763096E-1
1.797977360E-1,-6.042259932E-1,-2.068040073E-1,-2.348690033E-1,6.804560213E-1
1.848094290E-1,-5.613830090E-1,-1.852629930E-1,-3.204160035E-1,6.724133212E-1
1.898210970E-1,-4.572980106E-1,-1.756410003E-1,-3.229680061E-1,5.867534103E-1
1.948330180E-1,-3.539719880E-1,-1.730609983E-1,-2.542200089E-1,4.689073366E-1
1.998447220E-1,-2.280939966E-1,-1.678999960E-1,-1.277689934E-1,3.107124002E-1
2.048564150E-1,-1.033409983E-1,-1.577599943E-1,1.765000075E-2,1.894177928E-1
2.098681070E-1,-5.133999977E-3,-1.570679992E-1,1.215469986E-1,1.986715561E-1
2.148797840E-1,6.739299744E-2,-1.706440002E-1,1.993190050E-1,2.709045158E-1
2.198915520E-1,1.360159963E-1,-1.866469979E-1,2.030930072E-1,3.075454807E-1
2.249032610E-1,1.752150059E-1,-1.860010028E-1,1.584270000E-1,3.006589192E-1
2.299149530E-1,1.998140067E-1,-1.878889948E-1,8.987999707E-2,2.886283519E-1
2.349266460E-1,2.032739967E-1,-2.233520001E-1,3.262500092E-2,3.037611305E-1
2.399385520E-1,1.931580007E-1,-2.541080117E-1,-3.000699915E-2,3.205952508E-1
2.449502460E-1,1.744839996E-1,-3.063749969E-1,-5.411599949E-2,3.567055456E-1
2.499619200E-1,1.473080069E-1,-3.585790098E-1,-5.711299926E-2,3.918423788E-1
2.549736130E-1,1.326950043E-1,-3.891510069E-1,-3.498400003E-2,4.126382806E-1
2.599853000E-1,1.557520032E-1,-4.195809960E-1,3.007799946E-2,4.485661432E-1
2.649970670E-1,1.364250034E-1,-4.355239868E-1,7.203400135E-2,4.620409311E-1
2.700089900E-1,1.153659970E-1,-4.298230112E-1,9.854099900E-2,4.558151628E-1
2.750204690E-1,1.042699963E-1,-4.359590113E-1,1.426189989E-1,4.703962909E-1
2.800321590E-1,9.337700158E-2,-4.443080127E-1,2.131000012E-1,5.015381193E-1
2.850440820E-1,8.047100157E-2,-4.524759948E-1,2.790809870E-1,5.376767665E-1
2.900557620E-1,6.779100001E-2,-4.508599937E-1,3.617129922E-1,5.819850877E-1
2.950674540E-1,5.073900148E-2,-4.709570110E-1,2.611590028E-1,5.409057008E-1
3.000792160E-1,8.958499879E-2,-4.456610084E-1,2.449840009E-1,5.163878069E-1
3.050909100E-1,1.038710028E-1,-3.818379939E-1,3.547750115E-1,5.314647190E-1
3.101026030E-1,4.105399922E-2,-3.441759944E-1,3.897269964E-1,5.215646438E-1
3.151142810E-1,-7.114700228E-2,-3.038330078E-1,4.474250078E-1,5.454956739E-1
3.201259730E-1,-1.639959961E-1,-2.944009900E-1,4.809170067E-1,5.872374282E-1
3.251379090E-1,-2.055950016E-1,-2.897430062E-1,4.583599865E-1,5.799260225E-1
3.301496030E-1,-2.276050001E-1,-3.114669919E-1,4.161039889E-1,5.674136522E-1
3.351612860E-1,-2.445019931E-1,-3.117940128E-1,3.477639854E-1,5.271968518E-1
3.401730530E-1,-2.681750059E-1,-2.790719867E-1,1.613620073E-1,4.193288744E-1
3.451847280E-1,-2.450260073E-1,-2.396710068E-1,-1.441000029E-2,3.430562401E-1
3.501964200E-1,-1.647550017E-1,-2.101649940E-1,-9.449400008E-2,2.832713387E-1
3.552081120E-1,-6.617300212E-2,-1.569669992E-1,-1.306200027E-1,2.146604066E-1
3.602197810E-1,-1.475199964E-2,-1.039780006E-1,-1.916120052E-1,2.185044774E-1
3.652317020E-1,3.026900068E-2,-4.632499814E-2,-2.162549943E-1,2.232228492E-1
3.702433960E-1,7.146000117E-2,-2.818000037E-3,-1.080750003E-1,1.295942846E-1
3.752551730E-1,9.281399846E-2,7.410999853E-3,-7.868999615E-3,9.344133124E-2
3.802668680E-1,7.430099696E-2,-2.264700085E-2,1.218539998E-1,1.445057856E-1
3.852785700E-1,-1.766300015E-2,-8.325500041E-2,2.617470026E-1,2.752360261E-1
3.902902620E-1,-1.552439928E-1,-1.551470011E-1,3.952060044E-1,4.520609198E-1
3.953019550E-1,-2.421270013E-1,-1.931030005E-1,4.833770096E-1,5.740797741E-1
4.003138660E-1,-2.613520026E-1,-2.285570055E-1,4.973770082E-1,6.065699155E-1
4.053255600E-1,-2.195390016E-1,-2.354999930E-1,4.464550018E-1,5.504359078E-1
4.103372520E-1,-1.695989966E-1,-2.404550016E-1,3.371509910E-1,4.474966125E-1
4.153489450E-1,-1.349180043E-1,-2.672579885E-1,2.428880036E-1,3.855182000E-1
4.203606370E-1,-1.429319978E-1,-2.845700085E-1,1.932269931E-1,3.724866663E-1
4.253723940E-1,-1.460140049E-1,-3.090269864E-1,1.867070049E-1,3.894576660E-1
4.303840890E-1,-1.328449994E-1,-3.118999898E-1,2.082819939E-1,3.978828804E-1
4.353960100E-1,-1.062780023E-1,-3.219650090E-1,2.199430019E-1,4.041428025E-1
4.404077190E-1,-8.055000007E-2,-3.415989876E-1,2.383780032E-1,4.242667124E-1
4.454194110E-1,-3.238299862E-2,-3.542929888E-1,2.007289976E-1,4.084902826E-1
4.504311130E-1,4.205000028E-2,-3.433899879E-1,1.597680002E-1,3.810652178E-1
4.554428050E-1,8.633100241E-2,-3.326579928E-1,1.409460008E-1,3.714568041E-1
4.604544970E-1,1.060369983E-1,-3.244520128E-1,1.134250015E-1,3.596917911E-1
4.654662830E-1,1.226909980E-1,-3.067690134E-1,9.592600167E-2,3.440379432E-1
4.704779780E-1,1.201519966E-1,-2.867490053E-1,7.899799943E-2,3.207836939E-1
4.754898950E-1,1.175870001E-1,-2.786450088E-1,9.273999929E-2,3.163391392E-1
4.805013580E-1,1.056080014E-1,-2.633700073E-1,8.760599792E-2,2.969707419E-1
4.855132800E-1,9.383600205E-2,-2.457029969E-1,8.273799717E-2,2.757185778E-1
4.905249830E-1,6.135300174E-2,-2.375289947E-1,8.269000053E-2,2.588857863E-1
4.955366750E-1,4.362099990E-2,-2.174050063E-1,6.408800185E-2,2.308137786E-1
5.005483620E-1,1.455199998E-2,-2.019020021E-1,9.953700006E-2,2.255743636E-1
5.055601300E-1,-9.204000235E-3,-1.839009970E-1,1.178049967E-1,2.185916457E-1
5.105718240E-1,-3.017899953E-2,-1.682070047E-1,1.308970004E-1,2.152635435E-1
5.155835450E-1,-2.748100087E-2,-1.621129960E-1,1.322019994E-1,2.109815099E-1
5.205952380E-1,-1.119800005E-2,-1.442259997E-1,1.010449976E-1,1.764557331E-1
5.256071590E-1,4.383999854E-2,-1.266160011E-1,7.563400269E-2,1.538637695E-1
5.306188390E-1,8.101200312E-2,-1.330879927E-1,6.262800097E-2,1.679214845E-1
5.356305310E-1,7.998199761E-2,-1.634009928E-1,8.236899972E-2,1.997039221E-1
5.406422240E-1,1.045169979E-1,-1.770489961E-1,7.595100254E-2,2.191773361E-1
5.456539250E-1,1.375299990E-1,-1.883559972E-1,9.291200340E-2,2.510480486E-1
5.506656920E-1,1.834059954E-1,-1.854809970E-1,8.621300012E-2,2.747246635E-1
5.556774110E-1,2.047249973E-1,-1.969729960E-1,1.005100012E-1,3.013518641E-1
5.606893320E-1,2.299959958E-1,-2.036949992E-1,1.141669974E-1,3.277558757E-1
5.657010500E-1,2.499199957E-1,-2.055830061E-1,1.412020028E-1,3.530756041E-1
5.707127420E-1,2.831560075E-1,-2.027859986E-1,1.418430060E-1,3.760570757E-1
5.757244260E-1,3.294450045E-1,-1.881700009E-1,1.354790032E-1,4.028604231E-1
5.807361930E-1,3.443399966E-1,-1.833389997E-1,8.060199767E-2,3.983464624E-1
5.857478870E-1,3.472749889E-1,-1.691070050E-1,2.975399978E-2,3.874046948E-1
5.907595790E-1,3.480049968E-1,-1.788740009E-1,-3.454999998E-3,3.912995311E-1
5.957712710E-1,3.116869926E-1,-1.838690042E-1,-4.735400155E-2,3.649643730E-1
6.007829730E-1,2.951309979E-1,-1.889829934E-1,-1.062719971E-1,3.662111619E-1
6.057946660E-1,2.258280069E-1,-2.200960070E-1,-9.424400330E-2,3.291237961E-1
6.108065770E-1,1.400270015E-1,-2.364439964E-1,-6.438399851E-2,2.822385939E-1
6.158182710E-1,7.294999808E-2,-2.523509860E-1,1.481999992E-3,2.626878731E-1
6.208299540E-1,3.327799961E-2,-2.680949867E-1,1.665999927E-2,2.706656659E-1
6.258416470E-1,-5.820000079E-4,-2.861939967E-1,-9.139999747E-4,2.861960479E-1
6.308533390E-1,-5.413400009E-2,-3.138689995E-1,-5.719700083E-2,3.235981083E-1
6.358651150E-1,-1.081489995E-1,-3.702520132E-1,-1.186570004E-1,4.035619446E-1
6.408770380E-1,-1.325860023E-1,-3.955309987E-1,-1.526480019E-1,4.442130474E-1
6.458887330E-1,-1.097989976E-1,-4.088129997E-1,-1.323940009E-1,4.435223333E-1
6.509004060E-1,-8.309400082E-2,-4.125390053E-1,-1.175279990E-1,4.369277679E-1
6.559120980E-1,-2.924600057E-2,-4.259130061E-1,-9.626600146E-2,4.376349624E-1
6.609237900E-1,3.930599988E-2,-4.345560074E-1,-5.265400186E-2,4.394955393E-1
6.659355530E-1,9.896700084E-2,-4.312120080E-1,1.280600019E-2,4.426084689E-1
6.709472470E-1,1.104940027E-1,-4.061850011E-1,7.184900343E-2,4.270333231E-1
6.759589390E-1,1.542380005E-1,-3.811419904E-1,1.293900013E-1,4.310456474E-1
6.809706220E-1,1.875510067E-1,-3.610349894E-1,1.276050061E-1,4.263856016E-1
6.859825430E-1,1.992959976E-1,-3.458279967E-1,1.054050028E-1,4.128269766E-1
6.909942370E-1,2.063840032E-1,-3.475709856E-1,4.696600139E-2,4.069468664E-1
6.960059290E-1,1.810950041E-1,-3.589490056E-1,-1.195500046E-2,4.022222161E-1
7.010176220E-1,1.568959951E-1,-3.679069877E-1,-4.836700112E-2,4.028787307E-1
7.060293140E-1,1.382450014E-1,-3.672029972E-1,-5.840599909E-2,3.966875122E-1
7.110410010E-1,1.272460073E-1,-3.496269882E-1,-4.983500019E-2,3.753852747E-1
7.160527690E-1,1.097140014E-1,-3.223420084E-1,-4.418500140E-2,3.433567340E-1
7.210644540E-1,8.816400170E-2,-2.972339988E-1,-1.811799966E-2,3.105627201E-1
7.260761460E-1,6.275700033E-2,-3.006640077E-1,-1.167399995E-2,3.073655297E-1
7.310880670E-1,4.983599856E-2,-2.968539894E-1,-1.946499944E-2,3.016368743E-1
7.360997620E-1,2.810899913E-2,-3.001700044E-1,-4.821899906E-2,3.053149509E-1
7.411114540E-1,2.109600045E-2,-2.963599861E-1,-8.791799843E-2,3.098448919E-1
7.461232210E-1,7.340999786E-3,-2.757200003E-1,-9.177699685E-2,2.906861297E-1
7.511349160E-1,-1.291400008E-2,-2.621740103E-1,-1.074130014E-1,2.836186452E-1
7.561466080E-1,-3.726899996E-2,-2.294940054E-1,-1.482560039E-1,2.757468396E-1
7.611583000E-1,-5.646200106E-2,-2.017949969E-1,-2.415840030E-1,3.197999512E-1
7.661699930E-1,3.821700066E-2,-8.833400160E-2,-2.396049947E-1,2.582130679E-1
7.711816850E-1,6.708600372E-2,2.747900039E-2,-2.147260010E-1,2.266338079E-1
7.761936110E-1,1.577500068E-2,1.364450008E-1,-1.675010026E-1,2.166164231E-1
7.812053050E-1,7.280999795E-3,2.430830002E-1,-1.378590018E-1,2.795486761E-1
7.862170110E-1,-3.673000028E-3,3.330050111E-1,-1.181259975E-1,3.533547504E-1
7.912287030E-1,-4.504999891E-2,4.421769977E-1,-1.055070013E-1,4.568169513E-1
7.962404700E-1,-7.415699959E-2,5.345939994E-1,-1.019449979E-1,5.492565770E-1
8.012521640E-1,-1.168790013E-1,6.150869727E-1,-1.071429998E-1,6.351947003E-1
8.062638570E-1,-1.588419974E-1,6.836349964E-1,-1.185010001E-1,7.117795132E-1
8.112755490E-1,-1.953279972E-1,7.450240254E-1,-1.288769990E-1,7.809117145E-1
8.162874700E-1,-2.078250051E-1,7.967609763E-1,-1.429720074E-1,8.357393619E-1
8.212991790E-1,-2.431900054E-1,8.079299927E-1,-1.516250074E-1,8.572528184E-1
8.263108720E-1,-2.636199892E-1,8.312209845E-1,-1.176000014E-1,8.799168052E-1
8.313225640E-1,-2.692260146E-1,8.283690214E-1,-7.247400284E-2,8.740310999E-1
8.363343500E-1,-2.834990025E-1,8.137980103E-1,-3.051000088E-2,8.623049033E-1
8.413462730E-1,-2.919909954E-1,7.778900266E-1,-1.263900008E-2,8.309821774E-1
8.463577220E-1,-3.085379899E-1,6.918860078E-1,-4.861500114E-2,7.591214378E-1
8.513696430E-1,-3.444879949E-1,6.038320065E-1,-5.551699921E-2,6.974003211E-1
8.563813370E-1,-3.712379932E-1,4.944100082E-1,-1.272709966E-1,6.312343546E-1
8.613928280E-1,-4.285449982E-1,3.710469902E-1,-1.761949956E-1,5.936087608E-1
8.664047490E-1,-5.225250125E-1,2.459640056E-1,-2.099629939E-1,6.145039784E-1
8.714165200E-1,-6.058009863E-1,1.478780061E-1,-2.242359966E-1,6.626798034E-1
8.764282320E-1,-6.951180100E-1,5.764200166E-2,-2.544530034E-1,7.424674937E-1
8.814399240E-1,-7.835389972E-1,-1.042199973E-2,-2.977989912E-1,8.382876698E-1
8.864516160E-1,-8.155540228E-1,-4.470400140E-2,-3.609099984E-1,8.929629549E-1
8.914633200E-1,-8.369230032E-1,-7.151000202E-2,-4.108220041E-1,9.350553527E-1
8.964750120E-1,-8.503519893E-1,-9.563799948E-2,-4.573810101E-1,9.702796097E-1
9.014869330E-1,-8.283920288E-1,-9.329800308E-2,-4.729909897E-1,9.584666646E-1
9.064986270E-1,-7.905070186E-1,-1.027590036E-1,-4.563139975E-1,9.185223043E-1
9.115103200E-1,-7.394829988E-1,-1.193140000E-1,-4.290589988E-1,8.632279888E-1
9.165220170E-1,-6.825619936E-1,-1.430130005E-1,-4.054589868E-1,8.066849344E-1
9.215337840E-1,-6.222689748E-1,-1.642950028E-1,-3.596430123E-1,7.372615691E-1
9.265454740E-1,-5.724840164E-1,-2.142259926E-1,-3.246220052E-1,6.921056070E-1
9.315571660E-1,-5.210509896E-1,-2.904509902E-1,-3.186819851E-1,6.763239750E-1
9.365688630E-1,-4.773510098E-1,-3.738349974E-1,-3.221949935E-1,6.866048396E-1
9.415807840E-1,-4.202030003E-1,-4.596909881E-1,-3.373450041E-1,7.082993843E-1
9.465924690E-1,-3.872959912E-1,-5.407459736E-1,-3.636969924E-1,7.580764440E-1
9.516041610E-1,-3.593200147E-1,-6.194080114E-1,-4.125629961E-1,8.264292973E-1
9.566158530E-1,-3.292900026E-1,-6.933439970E-1,-4.740140140E-1,9.021347402E-1
9.616275460E-1,-3.112910092E-1,-7.553200126E-1,-5.408390164E-1,9.797536708E-1
9.666393130E-1,-3.213880062E-1,-7.978619933E-1,-5.618969798E-1,1.027425047E0
9.716510070E-1,-3.287380040E-1,-8.329229951E-1,-5.525450110E-1,1.052205009E0
9.766626940E-1,-3.496609926E-1,-8.626949787E-1,-5.069350004E-1,1.059947419E0
9.816743870E-1,-3.633489907E-1,-8.538280129E-1,-4.447509944E-1,1.029003504E0
9.866860600E-1,-3.331100047E-1,-8.211029768E-1,-3.756180108E-1,9.624246795E-1
9.916977520E-1,-2.976790071E-1,-7.598360181E-1,-2.811279893E-1,8.631318045E-1
9.967096680E-1,-2.480130047E-1,-6.893190145E-1,-1.710360050E-1,7.522795154E-1
1.001721363E0,-2.265039980E-1,-5.951820016E-1,-1.197910011E-1,6.479934877E-1
1.006733055E0,-2.417539954E-1,-4.820170105E-1,-9.063100070E-2,5.468083494E-1
1.011744812E0,-2.068919986E-1,-3.525969982E-1,-2.265200019E-2,4.094411501E-1
1.016756507E0,-1.440189928E-1,-2.382750064E-1,2.753300034E-2,2.797758300E-1
1.021768199E0,-1.141130030E-1,-1.387269944E-1,7.450100034E-2,1.944668493E-1
1.026779872E0,-1.136080027E-1,-6.097799912E-2,4.894899949E-2,1.379170011E-1
1.031791793E0,-9.741999954E-2,-2.979000099E-3,-8.662500232E-2,1.303971694E-1
1.036803488E0,-7.502999902E-2,3.287500143E-2,-2.385500073E-1,2.522228627E-1
1.041815161E0,2.376999939E-3,4.620100185E-2,-3.858360052E-1,3.885995440E-1
1.046826623E0,7.068300247E-2,3.479399905E-2,-5.314959884E-1,5.373031685E-1
1.051838534E0,6.970699877E-2,-5.394000094E-3,-6.318169832E-1,6.356735492E-1
1.056850228E0,4.306599870E-2,-6.689299643E-2,-6.743770242E-1,6.790535501E-1
1.061861961E0,8.609999786E-4,-1.468590051E-1,-5.633400083E-1,5.821685955E-1
1.066873656E0,-8.676599711E-2,-2.256460041E-1,-3.726530075E-1,4.442012173E-1
1.071885344E0,-1.950220019E-1,-3.221090138E-1,-1.600279957E-1,4.091414882E-1
1.076897036E0,-3.072119951E-1,-3.979139924E-1,8.100699633E-2,5.091923887E-1
1.081908718E0,-4.139010012E-1,-4.651269913E-1,2.851139903E-1,6.847971556E-1
1.086920640E0,-4.641009867E-1,-5.148419738E-1,4.027949870E-1,8.016830953E-1
1.091932334E0,-4.199160039E-1,-5.362129807E-1,4.042629898E-1,7.920116009E-1
1.096944031E0,-3.303390145E-1,-5.441539884E-1,3.303729892E-1,7.171985357E-1
1.101955798E0,-2.476329952E-1,-5.530110002E-1,2.133630067E-1,6.423916557E-1
1.106967488E0,-2.202489972E-1,-5.717809796E-1,9.606800228E-2,6.202194535E-1
1.111979180E0,-1.930930018E-1,-5.980070233E-1,-1.498700026E-2,6.285872394E-1
1.116990872E0,-1.569190025E-1,-6.173580289E-1,-9.474799782E-2,6.439966555E-1
1.122002579E0,-1.075619981E-1,-6.179959774E-1,-1.444150060E-1,6.436958175E-1
1.127014271E0,-5.737699941E-2,-5.927829742E-1,-1.439470053E-1,6.127026317E-1
1.132025968E0,-3.965999931E-3,-5.704150200E-1,-1.367489994E-1,5.865912657E-1
1.137037889E0,4.562000185E-2,-5.461450219E-1,-1.600240022E-1,5.709319143E-1
1.142049598E0,7.986299694E-2,-5.270149708E-1,-1.826280057E-1,5.634499678E-1
1.147061290E0,9.459800273E-2,-5.151609778E-1,-1.931889951E-1,5.582666057E-1
1.152073048E0,8.778099716E-2,-4.817920029E-1,-2.197850049E-1,5.367815998E-1
1.157084743E0,7.614800334E-2,-4.435600042E-1,-1.994690001E-1,4.922721582E-1
1.162096411E0,5.276999995E-2,-4.051139951E-1,-1.521009952E-1,4.359320298E-1
1.167108103E0,1.565499976E-2,-3.711299896E-1,-1.154519990E-1,3.889880619E-1
1.172119796E0,-6.947999820E-3,-3.250840008E-1,-1.006100029E-1,3.403678231E-1
1.177131493E0,-7.836499810E-2,-2.761150002E-1,-9.746800363E-2,3.031180925E-1
1.182143414E0,-1.180989966E-1,-2.341600060E-1,-1.241879985E-1,2.901739830E-1
1.187155098E0,-1.689939946E-1,-1.751669943E-1,-1.310999990E-1,2.764591395E-1
1.192166791E0,-2.097959965E-1,-1.160169989E-1,-1.582970023E-1,2.872842584E-1
1.197178558E0,-2.338290066E-1,-5.926699936E-2,-1.868019998E-1,3.050959991E-1
1.202190252E0,-2.669970095E-1,-1.665600017E-2,-1.771990061E-1,3.208805279E-1
1.207201955E0,-2.926360071E-1,1.186900027E-2,-1.260319948E-1,3.188428602E-1
1.212213647E0,-2.875649929E-1,3.321300074E-2,-7.647400349E-2,2.994077517E-1
1.217225568E0,-2.011550069E-1,3.465700150E-2,-2.863799967E-2,2.061178779E-1
1.222237266E0,-1.119019985E-1,2.051000018E-3,4.538099840E-2,1.207712668E-1
1.227248728E0,-1.600580066E-1,3.614000045E-3,1.102730036E-1,1.944010334E-1
1.232260659E0,-1.487360001E-1,-4.406000022E-3,1.546140015E-1,2.145863463E-1
1.237272430E0,-1.231850013E-1,-5.552100018E-2,1.535280049E-1,2.045188849E-1
1.242284122E0,-1.185349971E-1,-1.302739978E-1,1.594569981E-1,2.375887082E-1
1.247295844E0,-1.413930058E-1,-1.854230016E-1,1.349949986E-1,2.694389008E-1
1.252307536E0,-1.469309926E-1,-2.284049988E-1,1.019459963E-1,2.900871356E-1
1.257319204E0,-1.566240042E-1,-2.711650133E-1,6.048600003E-2,3.189358860E-1
1.262330897E0,-1.564269960E-1,-3.065780103E-1,5.256000161E-2,3.481695496E-1
1.267342818E0,-1.767719984E-1,-3.511210084E-1,4.463199899E-2,3.956340699E-1
1.272354281E0,-2.009329945E-1,-3.832620084E-1,3.198499978E-2,4.339203563E-1
1.277366202E0,-2.172629982E-1,-4.055269957E-1,1.238299999E-2,4.602267846E-1
1.282377892E0,-2.118330002E-1,-4.467450082E-1,1.140800025E-2,4.945548148E-1
1.287389584E0,-4.929199815E-2,-3.466390073E-1,-1.074299961E-2,3.502908999E-1
1.292401351E0,-9.259700030E-2,-4.177759886E-1,-5.069999956E-3,4.279447231E-1
1.297413060E0,-1.900209934E-1,-4.800879955E-1,9.030199796E-2,5.241630588E-1
1.302424752E0,-1.147719994E-1,-4.879870117E-1,1.522209942E-1,5.239037760E-1
1.307436439E0,-8.837699890E-2,-4.625869989E-1,2.165219933E-1,5.183425500E-1
1.312448132E0,-1.024539992E-1,-4.464960098E-1,2.647550106E-1,5.291036991E-1
1.317459824E0,-8.156099916E-2,-4.091350138E-1,2.929140031E-1,5.097472603E-1
1.322471741E0,-5.692199990E-2,-3.697359860E-1,3.016459942E-1,4.805570926E-1
1.327483435E0,-1.441099960E-2,-3.428260088E-1,2.893550098E-1,4.488470462E-1
1.332495128E0,1.290000044E-2,-3.020629883E-1,2.152130008E-1,3.711133177E-1
1.337506800E0,2.547499910E-2,-2.711820006E-1,1.412259936E-1,3.068117246E-1
1.342518492E0,4.691699892E-2,-2.383249998E-1,8.363500237E-2,2.568945775E-1
1.347530185E0,7.480800152E-2,-2.201489955E-1,7.201699913E-2,2.434096660E-1
1.352541962E0,9.504199773E-2,-2.045699954E-1,7.023599744E-2,2.362518988E-1
1.357553656E0,1.378619969E-1,-1.752520055E-1,5.723299831E-2,2.302060201E-1
1.362565358E0,1.700090021E-1,-1.440149993E-1,5.387400091E-2,2.292286823E-1
1.367577050E0,1.753879935E-1,-1.152909994E-1,7.612899691E-2,2.232679712E-1
1.372588742E0,1.568540037E-1,-9.841199964E-2,1.185680032E-1,2.198783107E-1
1.377600663E0,1.060189977E-1,-1.025530025E-1,1.088000014E-1,1.832882607E-1
1.382612358E0,5.639699847E-2,-1.159029976E-1,3.229900077E-2,1.328809683E-1
1.387624065E0,3.106399998E-2,-1.102560014E-1,-9.740599990E-2,1.503638479E-1
1.392635757E0,4.784400016E-2,-8.617199957E-2,-2.231850028E-1,2.439799322E-1
1.397647455E0,7.072900236E-2,-5.548999831E-2,-2.804070115E-1,2.944653185E-1
1.402659147E0,8.088199794E-2,-2.978600003E-2,-2.317579985E-1,2.472668058E-1
1.407670927E0,7.852199674E-2,1.017700043E-2,-1.801099926E-1,1.967457363E-1
1.412682621E0,1.037520021E-1,4.261299968E-2,-1.208790019E-1,1.649002086E-1
1.417694319E0,1.301099956E-1,7.939799875E-2,-6.578899920E-2,1.660145945E-1
1.422706240E0,1.116290018E-1,6.866399944E-2,-4.722699896E-2,1.393060239E-1
1.427717707E0,8.417300135E-2,7.733000070E-2,-6.184599921E-2,1.299613434E-1
1.432729628E0,1.034509987E-1,1.448840052E-1,-2.596980035E-1,3.148595514E-1
1.437741323E0,4.998499900E-2,1.439850032E-1,-1.645469964E-1,2.242897574E-1
1.442753090E0,-4.851200059E-2,1.064490005E-1,-3.324000165E-2,1.216129172E-1
1.447764707E0,-6.059199944E-2,8.843600005E-2,5.908099934E-2,1.224045791E-1
1.452776499E0,-2.585400082E-2,8.212900162E-2,1.462790072E-1,1.697384759E-1
1.457788193E0,3.091599979E-2,1.110630035E-1,2.404100001E-1,2.666228759E-1
1.462799885E0,1.069969982E-1,1.318670064E-1,2.834410071E-1,3.304180224E-1
1.467811574E0,1.857189983E-1,1.492529958E-1,2.767840028E-1,3.652086901E-1
1.472823266E0,2.463410050E-1,1.395210028E-1,2.077810019E-1,3.511736689E-1
1.477834977E0,3.077360094E-1,1.504189968E-1,1.502469927E-1,3.740340691E-1
1.482846898E0,3.607079983E-1,1.463579983E-1,1.408870071E-1,4.139807634E-1
1.487858362E0,3.820219934E-1,1.444309950E-1,1.411799937E-1,4.321260307E-1
1.492870283E0,3.981960118E-1,1.398919970E-1,1.206249967E-1,4.389535561E-1
1.497881977E0,3.953559995E-1,1.281429976E-1,8.686599880E-2,4.245853223E-1
1.502893670E0,4.095360041E-1,6.375499815E-2,3.539599851E-2,4.159775416E-1
1.507905427E0,4.025439918E-1,1.862600073E-2,1.369999954E-3,4.029770094E-1
1.512917121E0,4.170109928E-1,-4.070800170E-2,6.327900290E-2,4.237446657E-1
1.517928814E0,4.198369980E-1,-1.212909967E-1,1.116600037E-1,4.510460810E-1
1.522940506E0,4.065159857E-1,-1.942390054E-1,1.749009937E-1,4.832953502E-1
1.527952198E0,4.030539989E-1,-2.598139942E-1,2.040060014E-1,5.211278981E-1
1.532963890E0,4.022000134E-1,-3.301520050E-1,1.814839989E-1,5.510913164E-1
1.537975826E0,4.039579928E-1,-3.957839906E-1,1.228070036E-1,5.787128712E-1
1.542987520E0,4.035789967E-1,-4.613919854E-1,9.871999919E-2,6.208898525E-1
1.547999212E0,3.824160099E-1,-5.148130059E-1,6.414800137E-2,6.445070999E-1
1.553010896E0,3.245260119E-1,-5.556589961E-1,3.095999919E-2,6.442302181E-1
1.558022588E0,2.472649962E-1,-5.956959724E-1,-3.338300064E-2,6.458390625E-1
1.563034294E0,1.833149940E-1,-6.089670062E-1,-1.002850011E-1,6.438185172E-1
1.568045987E0,1.343100071E-1,-5.910469890E-1,-1.673959941E-1,6.288061227E-1
1.573057749E0,9.258499742E-2,-5.444930196E-1,-2.257129997E-1,5.966498038E-1
1.578069443E0,6.486500055E-2,-4.884789884E-1,-2.271060050E-1,5.425830148E-1
1.583081145E0,2.266000025E-2,-4.180380106E-1,-1.986909956E-1,4.634084221E-1
1.588092838E0,3.547000000E-3,-3.429589868E-1,-1.227379963E-1,3.642774541E-1
1.593104520E0,1.178700011E-2,-2.706069946E-1,-1.685599983E-2,2.713875525E-1
1.598116441E0,1.398000028E-2,-1.915280074E-1,3.714000061E-2,1.955960063E-1
1.603128131E0,2.005800046E-2,-1.438959986E-1,6.861200184E-2,1.606735466E-1
1.608139824E0,4.664300010E-2,-1.231319979E-1,5.044699833E-2,1.410033971E-1
1.613151525E0,7.218100131E-2,-9.573700279E-2,3.518800065E-2,1.249554562E-1
1.618163217E0,1.062680036E-1,-8.799699694E-2,2.733100019E-2,1.406532745E-1
1.623174910E0,1.094190031E-1,-1.065509990E-1,8.115000091E-3,1.529427568E-1
1.628186677E0,1.246739998E-1,-1.395139992E-1,-3.370900080E-2,1.901159093E-1
1.633198357E0,1.492670029E-1,-1.655479968E-1,-8.362399787E-2,2.380750941E-1
1.638210278E0,1.714430004E-1,-2.012390047E-1,-1.111800000E-1,2.867940582E-1
1.643221973E0,1.936299950E-1,-2.440949976E-1,-1.101109982E-1,3.304532868E-1
1.648233665E0,2.063480020E-1,-2.796669900E-1,-9.050399810E-2,3.591435603E-1
1.653245357E0,2.073680013E-1,-2.960250080E-1,-1.085600033E-1,3.773825216E-1
1.658257054E0,2.156910002E-1,-3.100290000E-1,-1.374959946E-1,4.019275270E-1
1.663268746E0,2.076610029E-1,-3.166089952E-1,-1.215379983E-1,3.976629641E-1
1.668280499E0,1.813880056E-1,-3.202770054E-1,-8.737900108E-2,3.783041879E-1
1.673292117E0,1.374029964E-1,-3.255569935E-1,-5.417000130E-2,3.574931167E-1
1.678303783E0,9.018500149E-2,-3.372040093E-1,-3.118900023E-2,3.504463327E-1
1.683315475E0,3.503999859E-2,-3.432410061E-1,-1.802000031E-2,3.454951667E-1
1.688327173E0,-3.718800098E-2,-3.530440032E-1,-9.734000079E-3,3.551306329E-1
1.693338942E0,-1.591510028E-1,-3.445720077E-1,2.858800068E-2,3.806260421E-1
1.698350636E0,-2.806319892E-1,-3.536640108E-1,8.448000252E-2,4.593140720E-1
1.703362337E0,-3.529619873E-1,-3.476159871E-1,1.271640062E-1,5.114584278E-1
1.708374030E0,-3.632549942E-1,-3.487400115E-1,1.477400064E-1,5.247865241E-1
1.713385951E0,-4.124960005E-1,-4.275990129E-1,2.557969987E-1,6.468585400E-1
1.718397636E0,-5.416319966E-1,-5.471550226E-1,3.980540037E-1,8.667126562E-1
1.723409328E0,-2.362779975E-1,-3.543150127E-1,2.164980024E-1,4.777424048E-1
1.728421021E0,-1.004379988E-1,-2.648699880E-1,-3.358999966E-3,2.832934609E-1
1.733432722E0,-1.265130043E-1,-2.662779987E-1,-1.168669984E-1,3.171236480E-1
1.738444414E0,-7.520099729E-2,-2.566260099E-1,-1.717430055E-1,3.178171784E-1
1.743456182E0,9.759400040E-2,-1.995860040E-1,-2.439700067E-1,3.299704927E-1
1.748467857E0,2.236559987E-1,-1.755509973E-1,-2.797029912E-1,3.988407222E-1
1.753479549E0,2.182929963E-1,-1.940719932E-1,-1.595750004E-1,3.328362233E-1
1.758491242E0,1.709139943E-1,-2.116460055E-1,-3.665100038E-2,2.744975791E-1
1.763502934E0,1.575340033E-1,-2.643150091E-1,1.235869974E-1,3.315918156E-1
1.768514603E0,1.209639981E-1,-2.872749865E-1,3.205290139E-1,4.470996035E-1
1.773526295E0,6.625899673E-2,-2.805739939E-1,4.677639902E-1,5.494680802E-1
1.778537996E0,1.716200076E-2,-2.684449852E-1,5.436999798E-1,6.066027632E-1
1.783549688E0,-5.740000051E-4,-2.563320100E-1,5.090050101E-1,5.699057196E-1
1.788561605E0,2.967000008E-3,-2.351830006E-1,4.020000100E-1,4.657508507E-1
1.793573300E0,-3.600000055E-4,-2.240280062E-1,2.407869995E-1,3.288876043E-1
1.798584992E0,-2.460099943E-2,-2.059119940E-1,8.704700321E-2,2.249047336E-1
1.803596759E0,-3.467100114E-2,-1.642470062E-1,-6.543000229E-3,1.679939529E-1
1.808608454E0,-4.507099837E-2,-1.203420013E-1,-2.127199993E-2,1.302539449E-1
1.813620146E0,-1.177399978E-2,-6.741300225E-2,6.839799881E-2,9.675446338E-2
1.818631838E0,3.818999976E-3,-3.846399859E-2,1.875779927E-1,1.915191042E-1
1.823643544E0,1.622599922E-2,-2.388899960E-2,2.937079966E-1,2.951243037E-1
1.828655237E0,2.551499940E-2,-6.974999793E-3,3.875569999E-1,3.884586130E-1
1.833667158E0,5.969300121E-2,2.372200042E-2,4.323999882E-1,4.371449845E-1
1.838678838E0,8.803299814E-2,4.196700081E-2,4.412339926E-1,4.518832528E-1
1.843690531E0,1.059039980E-1,6.456399709E-2,4.453760087E-1,4.623245134E-1
1.848702218E0,9.063400328E-2,5.619499832E-2,4.309749901E-1,4.439727948E-1
1.853713910E0,8.743699640E-2,3.349899873E-2,4.170170128E-1,4.273998131E-1
1.858725612E0,9.859599918E-2,-6.074000150E-3,3.779909909E-1,3.906856201E-1
1.863737304E0,1.192359999E-1,-5.299099907E-2,3.401640058E-1,3.643306472E-1
1.868749071E0,1.492709965E-1,-1.144869998E-1,3.059419990E-1,3.591512359E-1
1.873760784E0,1.933030039E-1,-1.717540026E-1,2.054940015E-1,3.302927086E-1
1.878772477E0,2.418009937E-1,-2.463130057E-1,9.865500033E-2,3.589855518E-1
1.883784155E0,2.876929939E-1,-3.259960115E-1,2.488400042E-2,4.354995657E-1
1.888795847E0,3.308579922E-1,-3.940429986E-1,-3.078399971E-2,5.154459723E-1
1.893807773E0,3.618240058E-1,-4.478220046E-1,-4.115299881E-2,5.771955720E-1
1.898819237E0,3.852680027E-1,-4.776960015E-1,-2.152300067E-2,6.140750307E-1
1.903831158E0,3.850559890E-1,-5.096769929E-1,1.767999958E-3,6.387815570E-1
1.908842847E0,3.778229952E-1,-5.151159763E-1,2.634100057E-2,6.393657272E-1
1.913854540E0,3.333620131E-1,-5.102199912E-1,8.498000354E-2,6.153667786E-1
1.918866232E0,2.987689972E-1,-4.763349891E-1,1.187030002E-1,5.746723743E-1
1.923877924E0,2.875770032E-1,-4.306339920E-1,1.468880028E-1,5.382585375E-1
1.928889617E0,2.687390149E-1,-3.660440147E-1,1.466239989E-1,4.771870449E-1
1.933901403E0,2.424740046E-1,-3.087700009E-1,1.465999931E-1,4.190753087E-1
1.938913020E0,2.230419964E-1,-2.589089870E-1,1.376010031E-1,3.683960257E-1
1.943924778E0,2.104260027E-1,-2.188130021E-1,1.336289942E-1,3.316850021E-1
1.948936472E0,2.067639977E-1,-1.814070046E-1,1.321360022E-1,3.051553295E-1
1.953948164E0,2.025659978E-1,-1.442580074E-1,1.307040006E-1,2.809393030E-1
1.958959886E0,2.119359970E-1,-1.145349964E-1,1.594980061E-1,2.889199650E-1
1.963971578E0,1.993390024E-1,-7.996200025E-2,2.222969979E-1,3.091050220E-1
1.968983270E0,2.008299977E-1,-7.168599963E-2,2.554169893E-1,3.327302345E-1
1.973994957E0,1.997500062E-1,-7.291000336E-2,2.971009910E-1,3.653558983E-1
1.979006649E0,1.964360029E-1,-8.358900249E-2,3.124119937E-1,3.783853570E-1
1.984018586E0,1.910980046E-1,-1.037240028E-1,3.043960035E-1,3.740775896E-1
1.989030280E0,1.839160025E-1,-1.333869994E-1,2.598359883E-1,3.451549339E-1
1.994041963E0,1.655900031E-1,-1.629710048E-1,1.913309991E-1,3.009769905E-1
1.999053655E0,1.365869939E-1,-2.110060006E-1,2.155970037E-1,3.311519398E-1
2.004065432E0,8.975200355E-2,-2.413489968E-1,2.855269909E-1,3.844872207E-1
2.009077126E0,8.607699722E-2,-2.593820095E-1,3.534280062E-1,4.467657461E-1
2.014088819E0,1.082149968E-1,-2.869910002E-1,4.054670036E-1,5.084071309E-1
2.019100511E0,1.578709930E-1,-2.961210012E-1,3.865950108E-1,5.119244086E-1
2.024112207E0,1.532250047E-1,-3.362790048E-1,3.337909877E-1,4.979737891E-1
2.029123900E0,1.307950020E-1,-3.858869970E-1,2.295189947E-1,4.676484533E-1
2.034135592E0,1.072209999E-1,-4.282079935E-1,1.333039999E-1,4.611164548E-1
2.039147284E0,1.011179984E-1,-4.703060091E-1,1.072859988E-1,4.928720699E-1
2.044159205E0,1.069360003E-1,-4.909340143E-1,9.834700078E-2,5.119801238E-1
2.049170891E0,9.635999799E-2,-5.042470098E-1,9.200499952E-2,5.215507799E-1
2.054182583E0,9.754999727E-2,-5.081300139E-1,8.123800159E-2,5.237477694E-1
2.059194275E0,1.125449985E-1,-5.169079900E-1,1.125470027E-1,5.408577212E-1
2.064205977E0,1.313569993E-1,-5.114859939E-1,1.754049957E-1,5.564525997E-1
2.069217744E0,1.422780007E-1,-5.109829903E-1,2.154919952E-1,5.725237513E-1
2.074229361E0,1.523000002E-1,-4.915739894E-1,2.615810037E-1,5.772909999E-1
2.079241158E0,1.497090012E-1,-4.627929926E-1,2.903639972E-1,5.664815883E-1
2.084252852E0,1.302720010E-1,-4.389269948E-1,2.814809978E-1,5.374562802E-1
2.089264544E0,1.338029951E-1,-3.989650011E-1,2.453989983E-1,4.871313806E-1
2.094276223E0,1.247109994E-1,-3.546000123E-1,2.338290066E-1,4.426849968E-1
2.099287915E0,1.079860032E-1,-3.081859946E-1,2.113119960E-1,3.889631651E-1
2.104299607E0,1.093209982E-1,-2.551169991E-1,2.082059979E-1,3.469661388E-1
2.109311304E0,1.075759977E-1,-2.239200026E-1,1.982180029E-1,3.178099110E-1
2.114322996E0,1.096500009E-1,-1.858649999E-1,2.162899971E-1,3.055327867E-1
2.119334903E0,1.388610005E-1,-1.508139968E-1,2.314720005E-1,3.092030500E-1
2.124346597E0,2.110189945E-1,-1.263570040E-1,2.389899939E-1,3.429450768E-1
2.129358290E0,2.113029957E-1,-1.402129978E-1,2.299180031E-1,3.423023939E-1
2.134369982E0,2.093279958E-1,-1.729460061E-1,2.580479980E-1,3.745895088E-1
2.139381674E0,2.332040071E-1,-2.057860047E-1,2.618330121E-1,4.065569024E-1
2.144393390E0,2.473219931E-1,-2.433100045E-1,2.838509977E-1,4.482625519E-1
2.149405083E0,2.663039863E-1,-3.022530079E-1,2.864510119E-1,4.942963444E-1
2.154416766E0,2.645950019E-1,-3.750909865E-1,2.887249887E-1,5.422784177E-1
2.159428458E0,2.637319863E-1,-4.451130033E-1,2.908790112E-1,5.935408540E-1
2.164440150E0,2.707529962E-1,-5.220040083E-1,2.836199999E-1,6.528672713E-1
2.169451927E0,2.758699954E-1,-5.724210143E-1,2.673679888E-1,6.893879266E-1
2.174463621E0,2.768749893E-1,-6.226490140E-1,2.423409969E-1,7.232431908E-1
2.179475528E0,2.646369934E-1,-6.798070073E-1,1.925639957E-1,7.544873743E-1
2.184487223E0,2.558900118E-1,-7.343199849E-1,1.466300040E-1,7.913317234E-1
2.189498689E0,2.410070002E-1,-7.742329836E-1,1.020189971E-1,8.172692107E-1
2.194510380E0,2.385230064E-1,-7.995989919E-1,9.096299857E-2,8.393604944E-1
2.199522076E0,2.221360058E-1,-7.960680127E-1,8.718500286E-2,8.310655273E-1
2.204533999E0,1.832839996E-1,-8.253899813E-1,8.328399807E-2,8.495868820E-1
2.209545693E0,1.432529986E-1,-8.326740265E-1,7.705499977E-2,8.484131829E-1
2.214557386E0,9.955599904E-2,-8.275089860E-1,7.555200160E-2,8.368934363E-1
2.219569083E0,5.688700080E-2,-8.241310120E-1,1.064520031E-1,8.329226163E-1
2.224580775E0,4.269799963E-2,-7.848839760E-1,1.201839969E-1,7.951793307E-1
2.229592488E0,2.106700093E-2,-7.240380049E-1,1.544149965E-1,7.406205791E-1
2.234604255E0,6.477000192E-3,-6.845980287E-1,1.875240058E-1,7.098462264E-1
2.239615949E0,2.180000022E-2,-6.311609745E-1,2.102939934E-1,6.656297615E-1
2.244627641E0,3.622300178E-2,-6.017990112E-1,2.460699975E-1,6.511717127E-1
2.249639334E0,4.273600131E-2,-5.701439977E-1,2.783370018E-1,6.358946693E-1
2.254651012E0,5.092300102E-2,-5.411390066E-1,2.841289937E-1,6.133138361E-1
2.259662704E0,4.471600056E-2,-5.314270258E-1,2.549340129E-1,5.911053674E-1
2.264674626E0,5.030300096E-2,-5.339040160E-1,2.171760052E-1,5.785752393E-1
2.269686320E0,5.094800144E-2,-5.318700075E-1,1.688050032E-1,5.603360892E-1
2.274698012E0,3.749400005E-2,-5.227550268E-1,1.264789999E-1,5.391433534E-1
2.279709705E0,2.653300017E-2,-5.114750266E-1,6.907399744E-2,5.167996905E-1
2.284721397E0,4.376599938E-2,-5.126320124E-1,6.084000226E-3,5.145328540E-1
2.289732858E0,7.405000180E-2,-4.787699878E-1,-7.391399890E-2,4.900687536E-1
2.294744558E0,1.283050030E-1,-4.127829969E-1,-1.680109948E-1,4.637668279E-1
2.299756481E0,1.658339947E-1,-2.980960011E-1,-2.918559909E-1,4.489343595E-1
2.304768180E0,2.052759975E-1,-1.422100067E-1,-4.421570003E-1,5.078038343E-1
2.309779872E0,2.760150135E-1,1.047570035E-1,-5.296229720E-1,6.063487527E-1
2.314791640E0,2.400269955E-1,3.553360105E-1,-6.414250135E-1,7.715586089E-1
2.319803324E0,1.462109983E-1,6.345239878E-1,-6.211289763E-1,8.998886333E-1
2.324815016E0,6.375700235E-2,9.065639973E-1,-5.346779823E-1,1.054421065E0
2.329826709E0,7.000699639E-2,1.211415052E0,-4.413779974E-1,1.291217234E0
2.334838406E0,1.504369974E-1,1.482563972E0,-3.609389961E-1,1.533265855E0
2.339850098E0,3.315129876E-1,1.755957007E0,-1.736920029E-1,1.795398225E0
2.344861785E0,4.340789914E-1,1.928840041E0,-1.525640041E-1,1.982958459E0
2.349873477E0,3.983510137E-1,2.001266003E0,-1.084999996E-3,2.040526971E0
2.354885399E0,2.507500052E-1,1.997221947E0,2.303539962E-1,2.026039001E0
2.359897088E0,5.599499866E-2,1.931095958E0,4.556800127E-1,1.984920984E0
2.364908781E0,-2.050179988E-1,1.805302978E0,4.547199905E-1,1.872944604E0
2.369920493E0,-4.366540015E-1,1.650953054E0,3.277150095E-1,1.738881776E0
2.374932185E0,-5.959879756E-1,1.470456004E0,1.196919978E-1,1.591153261E0
2.379943878E0,-7.261919975E-1,1.275817037E0,-2.225490063E-1,1.484786850E0
2.384955565E0,-7.965739965E-1,1.081341028E0,-5.561370254E-1,1.453656404E0
2.389967257E0,-8.168659806E-1,9.014019966E-1,-8.241840005E-1,1.469379072E0
2.394978949E0,-7.501839995E-1,7.242640257E-1,-1.011669993E0,1.452862894E0
2.399990641E0,-6.258860230E-1,5.537170172E-1,-1.082147002E0,1.367251982E0
2.405002409E0,-5.159959793E-1,3.997870088E-1,-9.967600107E-1,1.191474726E0
2.410014093E0,-4.114919901E-1,2.813810110E-1,-8.943449855E-1,1.023891539E0
2.415025786E0,-2.474959940E-1,2.070620060E-1,-8.378810287E-1,8.978716832E-1
2.420037478E0,4.391299933E-2,1.728560030E-1,-8.209109902E-1,8.400609521E-1
2.425049175E0,4.867449999E-1,1.986480057E-1,-8.023920059E-1,9.592781954E-1
2.430060868E0,8.393920064E-1,2.593140006E-1,-7.407969832E-1,1.149174861E0
2.435072789E0,1.036723018E0,3.422839940E-1,-6.304389834E-1,1.260716566E0
2.440084483E0,1.199059963E0,4.793519974E-1,-4.147840142E-1,1.356307086E0
2.445096175E0,1.276507974E0,6.287059784E-1,-9.623499960E-2,1.426185468E0
2.450107882E0,1.213616014E0,7.676630020E-1,1.954829991E-1,1.449270132E0
2.455119574E0,1.077476978E0,8.893809915E-1,3.875960112E-1,1.449891670E0
2.460131252E0,8.563699722E-1,9.771999717E-1,3.926340044E-1,1.357369064E0
2.465142714E0,6.086919904E-1,1.038051963E0,2.718499899E-1,1.233677524E0
2.470154630E0,4.356360137E-1,1.070960999E0,3.568200022E-2,1.156723563E0
2.475166324E0,3.124029934E-1,1.053930998E0,-2.689689994E-1,1.131684806E0
2.480178017E0,1.915120035E-1,9.917200208E-1,-6.429960132E-1,1.197342608E0
2.485189704E0,4.286200181E-2,8.728579879E-1,-9.897199869E-1,1.320327183E0
2.490201396E0,-3.958699852E-2,7.257959843E-1,-1.301085949E0,1.490359550E0
2.495213079E0,-7.868299633E-2,5.625780225E-1,-1.497009993E0,1.601163316E0
2.500224771E0,-6.646600366E-2,3.974390030E-1,-1.585327029E0,1.635737534E0
2.505236473E0,-3.703000024E-2,2.352750003E-1,-1.571537018E0,1.589482351E0
2.510248241E0,-4.939000122E-3,8.334200084E-2,-1.476919055E0,1.479276910E0
2.515259935E0,2.501199953E-2,-6.309799850E-2,-1.322190046E0,1.323931069E0
2.520271627E0,5.951900035E-2,-1.659229994E-1,-1.139181018E0,1.152738628E0
2.525283319E0,1.212270036E-1,-1.968819946E-1,-9.867920280E-1,1.013517150E0
2.530294997E0,1.765799969E-1,-1.704670042E-1,-8.685969710E-1,9.026074412E-1
2.535306689E0,1.864860058E-1,-1.605809927E-1,-8.275930285E-1,8.634080764E-1
2.540318610E0,1.547520012E-1,-1.717160046E-1,-8.430029750E-1,8.741216071E-1
2.545330305E0,1.338479966E-1,-2.063959986E-1,-9.224339724E-1,9.546722096E-1
2.550341997E0,9.539599717E-2,-2.238070071E-1,-1.003852010E0,1.032912789E0
2.555353463E0,5.159899965E-2,-2.669560015E-1,-1.108188987E0,1.141056876E0
2.560365154E0,1.174900029E-2,-2.975560129E-1,-1.188626051E0,1.225360971E0
2.565376832E0,-8.326999843E-3,-3.014500141E-1,-1.260072947E0,1.295656313E0
2.570388524E0,-2.321499959E-2,-3.049710095E-1,-1.318321943E0,1.353336248E0
2.575400456E0,-3.563899919E-2,-2.914359868E-1,-1.340667009E0,1.372440564E0
2.580412151E0,-3.866200149E-2,-2.752479911E-1,-1.344617963E0,1.373045401E0
2.585423839E0,-5.827499926E-2,-2.539519966E-1,-1.298197985E0,1.324086704E0
2.590435531E0,-8.925600350E-2,-2.442290038E-1,-1.207556963E0,1.235236115E0
2.595447224E0,-1.292559952E-1,-2.006909996E-1,-1.066869020E0,1.093249055E0
2.600459005E0,-1.269499958E-1,-1.620019972E-1,-9.493240118E-1,9.713789312E-1
2.605470622E0,-1.392679960E-1,-1.232960001E-1,-8.377910256E-1,8.581907020E-1
2.610482313E0,-1.217999980E-1,-7.527899742E-2,-7.389100194E-1,7.526554216E-1
2.615494005E0,-8.926100284E-2,-2.043900080E-2,-6.660450101E-1,6.723103709E-1
2.620505774E0,-6.288000196E-2,7.778999861E-3,-5.837370157E-1,5.871654886E-1
2.625517464E0,-3.071700037E-2,2.616799995E-2,-5.615230203E-1,5.629710478E-1
2.630529156E0,1.662099920E-2,3.231099993E-2,-5.511549711E-1,5.523513923E-1
2.635541077E0,5.578399822E-2,-1.192199998E-2,-5.500000119E-1,5.529502705E-1
2.640552527E0,1.010800004E-1,-6.824100018E-2,-5.624179840E-1,5.754893477E-1
2.645564217E0,1.316439956E-1,-1.436710060E-1,-5.555040240E-1,5.886902583E-1
2.650575933E0,1.596699953E-1,-2.334160060E-1,-5.112509727E-1,5.842560195E-1
2.655587625E0,1.784469932E-1,-3.349590003E-1,-4.887869954E-1,6.188324395E-1
2.660599318E0,1.997909993E-1,-4.268260002E-1,-4.434579909E-1,6.471103983E-1
2.665611245E0,2.236199975E-1,-5.114219785E-1,-4.153270125E-1,6.957405197E-1
2.670622939E0,2.612349987E-1,-5.649089813E-1,-4.224539995E-1,7.522188933E-1
2.675634632E0,3.028190136E-1,-5.944849849E-1,-4.476790130E-1,8.034477276E-1
2.680646324E0,3.274259865E-1,-6.071590185E-1,-4.975830019E-1,8.505519938E-1
2.685658016E0,3.354789913E-1,-6.315429807E-1,-5.459700227E-1,8.997088172E-1
2.690669694E0,2.951140106E-1,-6.435729861E-1,-4.983620048E-1,8.658193550E-1
2.695681387E0,2.377700061E-1,-6.480110288E-1,-4.459669888E-1,8.217903773E-1
2.700693064E0,2.287900001E-1,-6.308810115E-1,-3.959540129E-1,7.791888700E-1
2.705704756E0,2.458519936E-1,-6.329770088E-1,-3.641540110E-1,7.705265993E-1
2.710716448E0,2.464810014E-1,-6.374419928E-1,-3.291299939E-1,7.585589832E-1
2.715728212E0,2.217700034E-1,-6.320739985E-1,-3.419829905E-1,7.520982913E-1
2.720739829E0,2.141830027E-1,-6.242009997E-1,-3.432239890E-1,7.438440383E-1
2.725751520E0,2.251919955E-1,-5.901430249E-1,-3.215939999E-1,7.088038695E-1
2.730763212E0,2.450290024E-1,-5.705900192E-1,-3.102540076E-1,6.941683739E-1
2.735774981E0,2.524949908E-1,-5.296519995E-1,-2.765609920E-1,6.486685928E-1
2.740786671E0,2.339220047E-1,-5.054680109E-1,-2.489359975E-1,6.100709345E-1
2.745798363E0,2.296440005E-1,-4.788990021E-1,-2.386790067E-1,5.822785325E-1
2.750810031E0,2.250529975E-1,-4.380530119E-1,-2.243520021E-1,5.411775252E-1
2.755821724E0,2.204010040E-1,-4.307500124E-1,-1.989499927E-1,5.231665847E-1
2.760833416E0,2.179300040E-1,-4.115749896E-1,-1.698780060E-1,4.957277434E-1
2.765845108E0,2.500010133E-1,-3.831129968E-1,-1.464049965E-1,4.803233265E-1
2.770856800E0,2.784929872E-1,-3.429400027E-1,-1.262329966E-1,4.594572437E-1
2.775868492E0,3.011820018E-1,-2.958199978E-1,-1.047229990E-1,4.349562919E-1
2.780880419E0,3.206540048E-1,-2.465730011E-1,-5.632799864E-2,4.083994113E-1
2.785892113E0,3.253859878E-1,-2.022929937E-1,-5.018999800E-3,3.831757908E-1
2.790903806E0,3.391729891E-1,-1.581649929E-1,3.065199964E-2,3.754917131E-1
2.795915498E0,3.362999856E-1,-1.332850009E-1,9.072200209E-2,3.729518112E-1
2.800927166E0,3.218869865E-1,-1.036280021E-1,1.396999955E-1,3.658771428E-1
2.805938859E0,2.916870117E-1,-7.384300232E-2,1.709669977E-1,3.460690915E-1
2.810950551E0,2.346130013E-1,-5.812799931E-2,1.990720034E-1,3.131322200E-1
2.815962243E0,1.979719996E-1,-5.897200108E-2,2.217119932E-1,3.030294004E-1
2.820973935E0,1.462700069E-1,-4.760000110E-2,2.436760068E-1,2.881643130E-1
2.825985627E0,1.195140034E-1,-5.990900099E-2,2.183810025E-1,2.560526268E-1
2.830997319E0,8.915100247E-2,-7.432299852E-2,1.819860041E-1,2.158488245E-1
2.836009087E0,7.860399783E-2,-9.812700003E-2,1.462170035E-1,1.928390747E-1
2.841020767E0,3.618000075E-2,-1.192969978E-1,1.459330022E-1,1.919302146E-1
2.846032459E0,9.258000180E-3,-1.522919983E-1,1.498190016E-1,2.138324029E-1
2.851044151E0,-1.644499972E-2,-1.923560053E-1,1.669660062E-1,2.552428608E-1
2.856055844E0,-2.944100089E-2,-2.395790070E-1,1.900230050E-1,3.072028899E-1
2.861067555E0,-5.787900090E-2,-2.915369868E-1,2.375070006E-1,3.804646748E-1
2.866079247E0,-6.415399909E-2,-3.482899964E-1,2.691879869E-1,4.448413531E-1
2.871090939E0,-6.763400137E-2,-3.930760026E-1,2.880409956E-1,4.919865009E-1
2.876102641E0,-4.518099874E-2,-4.427349865E-1,2.967739999E-1,5.349115796E-1
2.881114333E0,-1.628899947E-2,-4.781480134E-1,2.909739912E-1,5.599613538E-1
2.886126025E0,2.347099967E-2,-5.137289762E-1,2.920759916E-1,5.914192538E-1
2.891137731E0,5.982499942E-2,-5.327609777E-1,3.091109991E-1,6.188399629E-1
2.896149423E0,1.020559967E-1,-5.375599861E-1,2.812390029E-1,6.152085353E-1
2.901161365E0,1.638700068E-1,-5.378379822E-1,2.701390088E-1,6.237773307E-1
2.906172829E0,2.121900022E-1,-5.239470005E-1,2.590399981E-1,6.218092770E-1
2.911184519E0,2.451850027E-1,-4.982079864E-1,2.502639890E-1,6.090639928E-1
2.916196207E0,2.657000124E-1,-4.843910038E-1,2.067209929E-1,5.898853364E-1
2.921207900E0,2.740269899E-1,-4.418919981E-1,2.128369957E-1,5.618353103E-1
2.926219596E0,2.613289952E-1,-4.136759937E-1,2.209019959E-1,5.368597240E-1
2.931231288E0,2.444320023E-1,-3.734030128E-1,2.285410017E-1,5.014058268E-1
2.936243212E0,2.303649932E-1,-3.354119956E-1,2.172999978E-1,4.612900671E-1
2.941254930E0,2.097270042E-1,-2.853929996E-1,2.387689948E-1,4.271360596E-1
2.946266622E0,1.896300018E-1,-2.376880050E-1,2.501839995E-1,3.937602810E-1
2.951278324E0,1.585009992E-1,-2.185949981E-1,2.822949886E-1,3.906364046E-1
2.956290017E0,1.281940043E-1,-1.778990030E-1,3.227930069E-1,3.902269639E-1
2.961301714E0,1.173020005E-1,-1.515689939E-1,3.690550029E-1,4.158539581E-1
2.966313406E0,9.286099672E-2,-1.395130008E-1,4.071190059E-1,4.402646103E-1
2.971325093E0,8.072199672E-2,-1.369549930E-1,4.235469997E-1,4.523989078E-1
2.976336785E0,7.824700326E-2,-1.319510043E-1,4.351660013E-1,4.614142496E-1
2.981348467E0,6.668599695E-2,-1.411660016E-1,4.283260107E-1,4.558925681E-1
2.986360159E0,4.399599880E-2,-1.669189930E-1,3.989410102E-1,4.346855505E-1
2.991371851E0,2.211800031E-2,-1.924329996E-1,3.454450071E-1,3.960453487E-1
2.996383558E0,3.393999999E-3,-2.105599940E-1,3.009769917E-1,3.673338806E-1
3.001395251E0,-1.462300029E-2,-2.356709987E-1,2.536309958E-1,3.465304226E-1
3.006406944E0,-4.360499978E-2,-2.629629970E-1,2.151000053E-1,3.425185339E-1
3.011418612E0,-3.214799985E-2,-2.806259990E-1,1.710850000E-1,3.302340419E-1
3.016430380E0,-7.079000119E-3,-2.791630030E-1,1.333439946E-1,3.094555144E-1
3.021442074E0,2.898699977E-2,-2.777700126E-1,1.061030030E-1,2.987545369E-1
3.026453775E0,7.803499699E-2,-2.573879957E-1,1.028520018E-1,2.879523839E-1
3.031465468E0,1.026799977E-1,-2.394520044E-1,1.043130010E-1,2.806450544E-1
3.036477160E0,1.292829961E-1,-2.479069978E-1,1.242619976E-1,3.059624433E-1
3.041489081E0,1.346459985E-1,-2.563689947E-1,1.597380042E-1,3.307126190E-1
3.046500544E0,1.355500072E-1,-2.504999936E-1,2.126269937E-1,3.554353523E-1
3.051512230E0,1.299149990E-1,-2.613320053E-1,2.431630045E-1,3.798691495E-1
3.056523922E0,1.155669987E-1,-2.577039897E-1,2.542900145E-1,3.800401150E-1
3.061535609E0,9.733299911E-2,-2.491739988E-1,2.558859885E-1,3.701878354E-1
3.066547302E0,8.459100127E-2,-2.381470054E-1,2.506580055E-1,3.559481274E-1
3.071558994E0,6.559800357E-2,-2.365379930E-1,2.177820057E-1,3.281498471E-1
3.076570686E0,4.987299815E-2,-2.300180048E-1,2.021050006E-1,3.102289956E-1
3.081582370E0,3.492299840E-2,-2.377450019E-1,1.774239987E-1,2.986998110E-1
3.086594063E0,2.767599933E-2,-2.406460047E-1,1.880069971E-1,3.066318501E-1
3.091605736E0,2.562100068E-2,-2.387329936E-1,2.051170021E-1,3.157892691E-1
3.096617657E0,1.697500050E-2,-2.463690042E-1,2.377039939E-1,3.427667219E-1
3.101629141E0,2.284700051E-2,-2.635850012E-1,2.668530047E-1,3.757786109E-1
3.106641062E0,1.494299993E-2,-2.592220008E-1,2.905229926E-1,3.896446435E-1
3.111652526E0,5.395999923E-2,-2.621259987E-1,2.901960015E-1,3.947599778E-1
3.116664447E0,9.677899629E-2,-2.507849932E-1,3.038510084E-1,4.056904266E-1
3.121676141E0,9.918799996E-2,-2.322299927E-1,3.055439889E-1,3.963914202E-1
3.126687823E0,8.324000239E-2,-2.159450054E-1,2.886820138E-1,3.699979033E-1
3.131699516E0,4.933900014E-2,-1.684159935E-1,2.908779979E-1,3.397179616E-1
3.136711208E0,-1.138500031E-2,-1.374360025E-1,3.092809916E-1,3.386340277E-1
3.141722890E0,-4.712999985E-2,-9.199299663E-2,3.386870027E-1,3.541085061E-1
3.146734583E0,-5.617899820E-2,-7.284899801E-2,3.693709970E-1,3.806546857E-1
3.151746275E0,-7.873299718E-2,-7.278099656E-2,4.339039922E-1,4.469548442E-1
3.156757948E0,-1.516299993E-1,-6.765700132E-2,4.478960037E-1,4.776818572E-1
3.161769640E0,-2.016219944E-1,-4.074500129E-2,3.456760049E-1,4.022480380E-1
3.166781322E0,-1.226409972E-1,-2.837800048E-2,2.071910053E-1,2.424339865E-1
3.171793014E0,4.993999843E-3,-1.639200002E-2,8.888600022E-2,9.052269734E-2
3.176804706E0,1.102970019E-1,-1.427299995E-2,-3.334499896E-2,1.161078641E-1
3.181816394E0,1.938070059E-1,-2.438100055E-2,-1.083360016E-1,2.233657941E-1
3.186828086E0,2.073139995E-1,1.085700002E-2,-4.257600009E-2,2.119190521E-1
3.191839793E0,2.040659934E-1,1.249899995E-2,1.020720005E-1,2.285122490E-1
3.196851486E0,1.777379960E-1,-2.173900045E-2,2.467339933E-1,3.048623342E-1
3.201863179E0,1.476559937E-1,-6.550099701E-2,4.057239890E-1,4.366974105E-1
3.206874891E0,8.143799752E-2,-1.138290018E-1,5.090100169E-1,5.279018720E-1
3.211886659E0,3.112999909E-2,-1.308519989E-1,5.398280025E-1,5.563322700E-1
3.216898353E0,3.331900015E-2,-1.263079941E-1,5.143309832E-1,5.306601788E-1
3.221910050E0,6.560499966E-2,-1.050650030E-1,4.481880069E-1,4.649894196E-1
3.226921743E0,1.317750067E-1,-7.442300022E-2,3.563629985E-1,3.871666592E-1
3.231933454E0,1.520220041E-1,-6.055000052E-2,2.950809896E-1,3.374163344E-1
3.236945146E0,1.462350041E-1,-4.423199967E-2,2.470459938E-1,2.904700833E-1
3.241956838E0,1.500910074E-1,-3.268500045E-2,2.651259899E-1,3.064105257E-1
3.246968765E0,1.261170059E-1,-2.821199968E-2,3.034130037E-1,3.297891249E-1
3.251980459E0,1.146339998E-1,-3.563499823E-2,3.638019860E-1,3.830961916E-1
3.256992151E0,8.508200198E-2,-4.292299971E-2,4.088050127E-1,4.197652551E-1
3.262003603E0,8.674699813E-2,-5.017700046E-2,4.298210144E-1,4.413489294E-1
3.267015524E0,1.047530025E-1,-5.267300084E-2,3.765459955E-1,3.943786547E-1
3.272027002E0,8.288300037E-2,-6.703999639E-2,2.834720016E-1,3.028536421E-1
3.277038692E0,5.245900154E-2,-8.129499853E-2,2.327830046E-1,2.520887758E-1
3.282050384E0,1.842300035E-2,-8.824499696E-2,2.067829967E-1,2.255787981E-1
3.287062073E0,-2.157199942E-2,-9.026999772E-2,2.023649961E-1,2.226333652E-1
3.292073765E0,-3.714599833E-2,-8.266499639E-2,1.862169951E-1,2.070992421E-1
3.297085457E0,-3.832500055E-2,-7.264900208E-2,2.097460032E-1,2.252555638E-1
3.302097149E0,-2.080200054E-2,-5.549700186E-2,2.115029991E-1,2.196500832E-1
3.307109073E0,-8.337999694E-3,-4.075900093E-2,2.060790062E-1,2.102364745E-1
3.312120767E0,3.399400041E-2,-1.179500017E-2,1.868010014E-1,1.902349290E-1
3.317132459E0,8.221500367E-2,1.941699907E-2,1.678359956E-1,1.878969081E-1
3.322144152E0,9.446900338E-2,3.386899829E-2,1.306280047E-1,1.647275850E-1
3.327155839E0,1.181960031E-1,5.066499859E-2,1.244539991E-1,1.789581938E-1
3.332167531E0,1.206780002E-1,4.356500134E-2,1.135620028E-1,1.713400640E-1
3.337179223E0,9.791299701E-2,1.266200002E-2,1.120010018E-1,1.493034013E-1
3.342190924E0,8.081399649E-2,-1.095500030E-2,1.102660000E-1,1.371477482E-1
3.347202616E0,6.450399756E-2,-5.123199895E-2,1.131030023E-1,1.399205937E-1
3.352214308E0,6.513500214E-2,-8.668600023E-2,1.179839969E-1,1.602412389E-1
3.357226000E0,6.367400289E-2,-1.173110008E-1,1.342049986E-1,1.892808263E-1
3.362237696E0,6.705600023E-2,-1.383319944E-1,1.567810029E-1,2.195735201E-1
3.367249388E0,4.953299835E-2,-1.544920057E-1,1.625220031E-1,2.296403693E-1
3.372261081E0,3.502799943E-2,-1.777410060E-1,1.703599989E-1,2.486792215E-1
3.377272784E0,2.328700013E-2,-2.057179958E-1,1.801619977E-1,2.744458481E-1
3.382284477E0,1.189600024E-2,-2.144809961E-1,2.082300037E-1,2.991710998E-1
3.387296170E0,7.800000021E-4,-2.399280071E-1,2.424249947E-1,3.410805404E-1
3.392307857E0,6.213999819E-3,-2.629550099E-1,2.894380093E-1,3.910988523E-1
3.397319549E0,2.287499979E-2,-2.692649961E-1,3.280459940E-1,4.250189148E-1
3.402331232E0,4.813300073E-2,-2.875880003E-1,3.840549886E-1,4.822052239E-1
3.407342924E0,7.943700254E-2,-3.155849874E-1,3.849509954E-1,5.040747867E-1
3.412354616E0,1.027439982E-1,-3.292999864E-1,3.765650094E-1,5.106819132E-1
3.417366318E0,1.529839933E-1,-3.503560126E-1,3.986339867E-1,5.523246266E-1
3.422378010E0,2.224050015E-1,-3.645069897E-1,3.808040023E-1,5.721372374E-1
3.427389702E0,2.803840041E-1,-4.028210044E-1,3.476350009E-1,6.014399764E-1
3.432401380E0,3.249500096E-1,-4.389550090E-1,2.995400131E-1,6.228950378E-1
3.437413149E0,3.705250025E-1,-4.680890143E-1,2.812460065E-1,6.599207672E-1
3.442424843E0,4.401690066E-1,-4.831439853E-1,2.546370029E-1,7.014391407E-1
3.447436455E0,4.661319852E-1,-5.174909830E-1,1.897830069E-1,7.218680869E-1
3.452448145E0,4.498629868E-1,-5.660650134E-1,2.058809996E-1,7.517933840E-1
3.457459832E0,4.573650062E-1,-5.763220191E-1,2.378350049E-1,7.732369030E-1
3.462471524E0,4.764260054E-1,-5.650619864E-1,2.528010011E-1,7.811434780E-1
3.467483289E0,4.834949970E-1,-5.513870120E-1,2.652100027E-1,7.798277981E-1
3.472494906E0,4.419089854E-1,-5.495049953E-1,2.636719942E-1,7.528361122E-1
3.477506596E0,3.812009990E-1,-5.450090170E-1,2.418289930E-1,7.076936428E-1
3.482518289E0,3.133229911E-1,-5.354989767E-1,2.327869982E-1,6.626614802E-1
3.487529981E0,2.826299965E-1,-5.091480017E-1,2.082159966E-1,6.184377930E-1
3.492541764E0,2.808920145E-1,-4.564949870E-1,1.846700013E-1,5.669135793E-1
3.497553382E0,2.864690125E-1,-4.062829912E-1,1.362909973E-1,5.154663907E-1
3.502565073E0,2.735930085E-1,-3.679560125E-1,1.284749955E-1,4.761833532E-1
3.507576842E0,2.473559976E-1,-3.438229859E-1,1.552899927E-1,4.511255003E-1
3.512588527E0,2.289920002E-1,-3.099470139E-1,2.063259929E-1,4.371211536E-1
3.517600142E0,2.112479955E-1,-2.854790092E-1,2.602249980E-1,4.402738124E-1
3.522611909E0,2.103690058E-1,-2.752690017E-1,3.100340068E-1,4.649185168E-1
3.527623604E0,2.211599946E-1,-2.698099911E-1,3.467369974E-1,4.918696167E-1
3.532635296E0,2.155269980E-1,-2.739250064E-1,3.198249936E-1,4.730484357E-1
3.537646988E0,2.032099962E-1,-2.851530015E-1,3.191910088E-1,4.738031627E-1
3.542658671E0,1.798229963E-1,-2.914330065E-1,3.438740075E-1,4.853028336E-1
3.547670363E0,1.572189927E-1,-3.071529865E-1,3.582949936E-1,4.974294636E-1
3.552682050E0,1.538960040E-1,-3.107840121E-1,3.974170089E-1,5.274570704E-1
3.557693742E0,1.715140045E-1,-3.335309923E-1,4.256249964E-1,5.672888278E-1
3.562705444E0,2.070830017E-1,-3.491429985E-1,4.408890009E-1,5.993056934E-1
3.567717136E0,2.714850008E-1,-3.314310014E-1,4.553579986E-1,6.252211779E-1
3.572728804E0,3.152570128E-1,-3.425230086E-1,4.643929899E-1,6.575483591E-1
3.577740496E0,3.645269871E-1,-3.489139974E-1,4.938699901E-1,7.060654849E-1
3.582752193E0,4.052850008E-1,-3.625720143E-1,4.967629910E-1,7.365377564E-1
3.587763885E0,4.308080077E-1,-3.882929981E-1,4.763630033E-1,7.505256176E-1
3.592775568E0,4.416469932E-1,-4.212889969E-1,4.334410131E-1,7.486037652E-1
3.597787261E0,4.337309897E-1,-4.686909914E-1,3.802720010E-1,7.432365785E-1
3.602798954E0,4.377729893E-1,-5.089870095E-1,3.356310129E-1,7.505738757E-1
3.607810642E0,4.396010041E-1,-5.661630034E-1,2.621949911E-1,7.632403309E-1
3.612822334E0,4.347569942E-1,-6.186019778E-1,2.046940029E-1,7.833145510E-1
3.617834026E0,4.349870086E-1,-6.518790126E-1,1.882030070E-1,8.059654562E-1
3.622845733E0,4.285979867E-1,-6.755790114E-1,1.557510048E-1,8.150838058E-1
3.627857425E0,4.111810029E-1,-6.776350141E-1,1.472260058E-1,8.061851687E-1
3.632869117E0,3.947080076E-1,-6.675750017E-1,1.525139958E-1,7.903868123E-1
3.637881043E0,3.860079944E-1,-6.454809904E-1,1.434040070E-1,7.656452115E-1
3.642892738E0,3.686029911E-1,-6.209170222E-1,1.249829978E-1,7.328211673E-1
3.647904430E0,3.242670000E-1,-5.961239934E-1,1.252599955E-1,6.900746113E-1
3.652915897E0,2.653659880E-1,-5.710009933E-1,1.506550014E-1,6.474242592E-1
3.657927587E0,2.270099968E-1,-5.313299894E-1,1.541209966E-1,5.979952992E-1
3.662939284E0,1.714289933E-1,-5.010349751E-1,1.363119930E-1,5.468134101E-1
3.667950977E0,1.314820051E-1,-4.658840001E-1,9.785699844E-2,4.938738820E-1
3.672962645E0,1.159090027E-1,-4.355089962E-1,6.248399988E-2,4.549804754E-1
3.677974337E0,1.330160052E-1,-3.932819963E-1,2.995200083E-2,4.162464517E-1
3.682986024E0,1.609469950E-1,-3.367669880E-1,2.805100009E-2,3.743030831E-1
3.687997717E0,2.109329998E-1,-2.851929963E-1,2.097400092E-2,3.553416444E-1
3.693009415E0,2.405990064E-1,-2.528049946E-1,2.268699929E-2,3.497326795E-1
3.698021108E0,2.574810088E-1,-2.253109962E-1,-8.789000101E-3,3.422554038E-1
3.703032806E0,2.619810104E-1,-2.097620070E-1,-1.211399958E-2,3.358286742E-1
3.708044498E0,2.592560053E-1,-2.228270024E-1,-6.885999814E-3,3.419253811E-1
3.713056190E0,2.564359903E-1,-2.405869961E-1,-9.744999930E-3,3.517619719E-1
3.718067896E0,2.396840006E-1,-2.558859885E-1,-3.420399874E-2,3.522725831E-1
3.723079588E0,2.025450021E-1,-3.021849990E-1,-7.982400060E-2,3.724407638E-1
3.728091280E0,1.547870040E-1,-3.340570033E-1,-1.388259977E-1,3.934790410E-1
3.733102958E0,1.060070023E-1,-3.444019854E-1,-2.271679938E-1,4.259759494E-1
3.738114650E0,2.820999920E-2,-3.141799867E-1,-3.693389893E-1,4.857120104E-1
3.743126342E0,-8.956299722E-2,-2.048760056E-1,-4.731859863E-1,5.233552195E-1
3.748138049E0,-2.444290072E-1,-4.246000201E-3,-5.025460124E-1,5.588524516E-1
3.753149742E0,-4.218350053E-1,2.472680062E-1,-4.593990147E-1,6.709200349E-1
3.758161435E0,-5.914120078E-1,5.713629723E-1,-3.267419934E-1,8.848639101E-1
3.763173123E0,-7.622020245E-1,9.258679748E-1,-1.283729970E-1,1.206094134E0
3.768184815E0,-8.946319818E-1,1.294742942E0,9.910299629E-2,1.576878902E0
3.773196521E0,-9.457119703E-1,1.673146009E0,3.225759864E-1,1.948805780E0
3.778208213E0,-9.320570230E-1,2.058648109E0,5.328980088E-1,2.321797282E0
3.783219896E0,-8.872079849E-1,2.444031000E0,6.944699883E-1,2.691229106E0
3.788231588E0,-8.206729889E-1,2.771842003E0,8.601089716E-1,3.016023821E0
3.793243294E0,-6.702359915E-1,3.077943087E0,9.750030041E-1,3.297511302E0
3.798254986E0,-5.242810249E-1,3.300154924E0,8.451259732E-1,3.446756596E0
3.803266909E0,-5.141959786E-1,3.388232946E0,6.405180097E-1,3.486371082E0
3.808278362E0,-5.849949718E-1,3.366111994E0,5.070239902E-1,3.453983555E0
3.813290284E0,-6.887379885E-1,3.214656115E0,3.393239975E-1,3.305074088E0
3.818301973E0,-8.541409969E-1,2.943471909E0,1.012260020E-1,3.066566553E0
3.823313434E0,-1.062031031E0,2.600482941E0,-2.125539929E-1,2.817019814E0
3.828325110E0,-1.223997951E0,2.212073088E0,-4.567179978E-1,2.569052288E0
3.833336802E0,-1.354341984E0,1.830979943E0,-6.535069942E-1,2.369346145E0
3.838348725E0,-1.465186000E0,1.481152058E0,-7.793310285E-1,2.224396162E0
3.843360189E0,-1.592344999E0,1.114770055E0,-8.128669858E-1,2.106900000E0
3.848371879E0,-1.685704947E0,7.629250288E-1,-7.229740024E-1,1.986541511E0
3.853383586E0,-1.679695010E0,4.346120059E-1,-5.746679902E-1,1.827705179E0
3.858395279E0,-1.650289059E0,1.339080036E-1,-4.221740067E-1,1.708688451E0
3.863406985E0,-1.609840989E0,-1.465370059E-1,-3.002089858E-1,1.644137020E0
3.868418908E0,-1.535007000E0,-4.381999969E-1,-2.612630129E-1,1.617567337E0
3.873430381E0,-1.440909028E0,-7.079280019E-1,-2.841680050E-1,1.630377974E0
3.878442302E0,-1.318811059E0,-9.727550149E-1,-3.437800109E-1,1.674425162E0
3.883453765E0,-1.197409987E0,-1.237498045E0,-4.088549912E-1,1.769845895E0
3.888465456E0,-1.109457970E0,-1.497616053E0,-5.191890001E-1,1.934763046E0
3.893477148E0,-1.016862035E0,-1.736238956E0,-6.579229832E-1,2.116930977E0
3.898488836E0,-9.293770194E-1,-1.931826949E0,-8.181830049E-1,2.294585025E0
3.903500529E0,-8.640159965E-1,-2.098762989E0,-9.379739761E-1,2.455834869E0
3.908512452E0,-7.968339920E-1,-2.225063086E0,-9.959120154E-1,2.564700935E0
3.913524146E0,-7.206419706E-1,-2.329879999E0,-1.015844941E0,2.641894511E0
3.918535838E0,-6.593829989E-1,-2.403625965E0,-9.931550026E-1,2.683013339E0
3.923547531E0,-6.345810294E-1,-2.434376001E0,-1.001675963E0,2.707809878E0
3.928559213E0,-5.743950009E-1,-2.417373896E0,-1.084218025E0,2.710932477E0
3.933570905E0,-4.477449954E-1,-2.359777927E0,-1.145254016E0,2.660946112E0
3.938582598E0,-2.879410088E-1,-2.254343033E0,-1.213711977E0,2.576445089E0
3.943594054E0,-1.953590065E-1,-2.120157003E0,-1.285107970E0,2.486912414E0
3.948605744E0,-1.629790068E-1,-1.947625995E0,-1.280872941E0,2.336759436E0
3.953617437E0,-1.192269996E-1,-1.724868059E0,-1.179172993E0,2.092805257E0
3.958629115E0,-9.744299948E-2,-1.490149975E0,-1.030110955E0,1.814158390E0
3.963640807E0,-1.620540023E-1,-1.284150004E0,-8.765109777E-1,1.563193599E0
3.968652504E0,-2.435240000E-1,-1.075798035E0,-7.226570249E-1,1.318665434E0
3.973664196E0,-3.317219913E-1,-8.826969862E-1,-5.511350036E-1,1.092219411E0
3.978675879E0,-4.394710064E-1,-6.910920143E-1,-4.044139981E-1,9.133967482E-1
3.983687572E0,-5.149149895E-1,-5.181459785E-1,-3.091799915E-1,7.932244124E-1
3.988699265E0,-5.798079967E-1,-3.474830091E-1,-2.867250144E-1,7.342567593E-1
3.993710958E0,-5.897949934E-1,-2.177409977E-1,-3.001869917E-1,6.966932656E-1
3.998722651E0,-5.694159865E-1,-1.077480018E-1,-3.812740147E-1,6.936959506E-1
4.003734348E0,-5.516620278E-1,-4.368099943E-2,-4.726960063E-1,7.277915478E-1
4.008746040E0,-5.734699965E-1,-1.070899982E-2,-5.350919962E-1,7.844144083E-1
4.013757961E0,-5.963889956E-1,-3.850999987E-3,-5.695670247E-1,8.246825207E-1
4.018769434E0,-6.341630220E-1,-2.759600058E-2,-5.747900009E-1,8.563339436E-1
4.023781355E0,-6.605960131E-1,-7.711499929E-2,-5.679590106E-1,8.745920497E-1
4.028793049E0,-7.247269750E-1,-1.377560049E-1,-5.632780194E-1,9.281637961E-1
4.033804742E0,-7.974789739E-1,-2.095330060E-1,-5.930889845E-1,1.015692541E0
4.038816203E0,-8.739150167E-1,-2.898969948E-1,-6.100289822E-1,1.104492229E0
4.043828124E0,-9.401590228E-1,-3.670899868E-1,-6.631649733E-1,1.207659649E0
4.048839805E0,-1.010558963E0,-4.457330108E-1,-6.935449839E-1,1.304190162E0
4.053851266E0,-1.071262002E0,-5.138480067E-1,-6.948410273E-1,1.376388791E0
4.058863187E0,-1.099686027E0,-5.693190098E-1,-6.889380217E-1,1.417063545E0
4.063874651E0,-1.099266052E0,-6.148369908E-1,-6.922950149E-1,1.437248332E0
4.068886572E0,-1.068846941E0,-6.338660121E-1,-6.583529711E-1,1.406288924E0
4.073898025E0,-1.023478985E0,-6.386460066E-1,-6.392080188E-1,1.365270979E0
4.078909716E0,-9.589409828E-1,-6.317880154E-1,-6.298869848E-1,1.309763917E0
4.083921403E0,-8.922790289E-1,-6.133130193E-1,-5.836820006E-1,1.230040407E0
4.088933095E0,-8.097010255E-1,-5.858420134E-1,-5.388500094E-1,1.135423246E0
4.093944779E0,-7.346320152E-1,-5.683699846E-1,-4.791240096E-1,1.045126047E0
4.098956471E0,-6.783990264E-1,-5.536130071E-1,-4.279339910E-1,9.745974047E-1
4.103968149E0,-5.941140056E-1,-5.227530003E-1,-3.710820079E-1,8.740389050E-1
4.108979842E0,-5.312280059E-1,-4.971390069E-1,-3.250409961E-1,7.968701497E-1
4.113991535E0,-4.472750127E-1,-4.674859941E-1,-2.985930145E-1,7.125699124E-1
4.119003228E0,-4.032100141E-1,-4.358949959E-1,-3.145020008E-1,6.719332344E-1
4.124014921E0,-4.095979929E-1,-3.946740031E-1,-3.043259978E-1,6.450987502E-1
4.129026627E0,-4.349449873E-1,-3.579660058E-1,-2.595939934E-1,6.202465999E-1
4.134038319E0,-4.857110083E-1,-3.184350133E-1,-2.486010045E-1,6.317582613E-1
4.139050011E0,-4.701980054E-1,-3.053990006E-1,-2.633819878E-1,6.194552328E-1
4.144061712E0,-4.415279925E-1,-2.784340084E-1,-3.170619905E-1,6.107378906E-1
4.149073404E0,-3.929139972E-1,-2.615990043E-1,-3.714669943E-1,6.006689405E-1
4.154085110E0,-3.621410131E-1,-2.427109927E-1,-4.104999900E-1,5.988029569E-1
4.159096802E0,-3.417589962E-1,-2.215449959E-1,-3.835949898E-1,5.594877236E-1
4.164108509E0,-3.311980069E-1,-2.170410007E-1,-3.484829962E-1,5.274839471E-1
4.169120201E0,-3.117220104E-1,-2.053679973E-1,-2.868359983E-1,4.707669444E-1
4.174131899E0,-2.924860120E-1,-2.175579965E-1,-2.502970099E-1,4.421856423E-1
4.179143592E0,-2.522140145E-1,-2.560850084E-1,-2.057970017E-1,4.141785202E-1
4.184155285E0,-2.266249955E-1,-2.730680108E-1,-1.790120006E-1,3.974548068E-1
4.189166988E0,-2.081349939E-1,-3.090789914E-1,-1.741620004E-1,4.113178832E-1
4.194178680E0,-1.987559944E-1,-3.567929864E-1,-1.626790017E-1,4.396244284E-1
4.199190372E0,-1.981299967E-1,-3.992969990E-1,-1.425839961E-1,4.679997702E-1
4.204202045E0,-2.016779929E-1,-4.223220050E-1,-1.207960024E-1,4.833441455E-1
4.209213737E0,-2.092629969E-1,-4.497709870E-1,-1.136050001E-1,5.089116217E-1
4.214225429E0,-2.047210038E-1,-4.556359947E-1,-1.597930044E-1,5.244508111E-1
4.219237111E0,-2.207040042E-1,-4.850339890E-1,-1.998640001E-1,5.691342956E-1
4.224248803E0,-2.292149961E-1,-4.831350148E-1,-2.134020030E-1,5.757598213E-1
4.229260495E0,-2.214729935E-1,-4.574339986E-1,-2.431679964E-1,5.634064469E-1
4.234272188E0,-1.890829951E-1,-4.107489884E-1,-2.494090050E-1,5.164029069E-1
4.239283881E0,-1.115619987E-1,-3.794060051E-1,-2.559730113E-1,4.710808623E-1
4.244295574E0,-7.846099883E-2,-3.676309884E-1,-2.373470068E-1,4.445697623E-1
4.249307267E0,-6.981500238E-2,-3.750950098E-1,-2.127459943E-1,4.368423732E-1
4.254318959E0,-3.387400135E-2,-3.710150123E-1,-1.402149945E-1,3.980701345E-1
4.259330665E0,-6.235000212E-3,-3.768410087E-1,-8.613900095E-2,3.866108489E-1
4.264342357E0,1.327999961E-2,-3.781549931E-1,-2.665299922E-2,3.793256379E-1
4.269354054E0,3.636699915E-2,-3.679690063E-1,-1.981600001E-2,3.702923468E-1
4.274365670E0,6.741300225E-2,-3.416880071E-1,-2.929699980E-2,3.495046799E-1
4.279377453E0,8.057399839E-2,-3.158529997E-1,-2.915799990E-2,3.272697291E-1
4.284389147E0,7.866299897E-2,-2.950879931E-1,-3.137800097E-2,3.070006027E-1
4.289400839E0,7.374300063E-2,-2.769289911E-1,-1.259400044E-2,2.868558960E-1
4.294412535E0,7.281500101E-2,-2.518889904E-1,8.042000234E-3,2.623256785E-1
4.299424228E0,8.058399707E-2,-2.343779951E-1,9.607000276E-3,2.480304813E-1
4.304435920E0,8.736900240E-2,-2.029419988E-1,-4.987000022E-3,2.210060353E-1
4.309447603E0,1.026239991E-1,-1.815409958E-1,-1.208500005E-2,2.088896014E-1
4.314459295E0,9.345699847E-2,-1.507740021E-1,-1.436599996E-2,1.779702004E-1
4.319470987E0,8.158200234E-2,-1.320189983E-1,3.428699821E-2,1.589346949E-1
4.324482703E0,8.084099740E-2,-9.436900169E-2,9.974999726E-2,1.593450259E-1
4.329494395E0,7.241799682E-2,-6.644800305E-2,1.305159926E-1,1.633833765E-1
4.334506077E0,4.730600119E-2,-4.560299963E-2,1.787039936E-1,1.904011781E-1
4.339517694E0,4.099699855E-2,-3.440099955E-2,2.206719965E-1,2.270689602E-1
4.344529385E0,4.142399877E-2,-1.376899984E-2,2.520479858E-1,2.558001567E-1
4.349541077E0,4.160999879E-2,-9.968000464E-3,2.617389858E-1,2.652132156E-1
4.354552769E0,3.477700055E-2,-1.808900014E-2,2.456510067E-1,2.487590577E-1
4.359564462E0,6.783200055E-2,-3.378200158E-2,1.975069940E-1,2.115453063E-1
4.364576140E0,7.699199766E-2,-5.669900030E-2,1.506990045E-1,1.784733434E-1
4.369587832E0,8.838500082E-2,-6.540899724E-2,8.652699739E-2,1.399184283E-1
4.374599602E0,9.040799737E-2,-8.123199642E-2,6.577000022E-2,1.381952827E-1
4.379611296E0,1.042879969E-1,-1.042509973E-1,6.615000218E-2,1.616170768E-1
4.384622988E0,1.015449986E-1,-1.080349982E-1,8.236800134E-2,1.696096554E-1
4.389634604E0,1.105469987E-1,-1.142660007E-1,9.307599813E-2,1.842294745E-1
4.394646371E0,1.262769997E-1,-1.158569977E-1,1.100879982E-1,2.036862585E-1
4.399657972E0,1.413979977E-1,-1.128600016E-1,1.379500031E-1,2.275103890E-1
4.404669663E0,1.561809927E-1,-1.267530024E-1,1.371030062E-1,2.434256774E-1
4.409681432E0,1.751530021E-1,-1.336890012E-1,1.548860073E-1,2.693343618E-1
4.414693064E0,1.910589933E-1,-1.361149997E-1,1.605570018E-1,2.842699121E-1
4.419704755E0,2.064149976E-1,-1.435420066E-1,1.708469987E-1,3.039739394E-1
4.424716447E0,2.117269933E-1,-1.416299939E-1,1.578540057E-1,2.996752609E-1
4.429728148E0,2.305990010E-1,-1.400299966E-1,1.684260070E-1,3.180434233E-1
4.434739840E0,2.322050035E-1,-1.266510040E-1,1.857179999E-1,3.231885146E-1
4.439751610E0,2.612949908E-1,-1.113300025E-1,2.234710008E-1,3.613982981E-1
4.444763304E0,2.936420143E-1,-7.508099824E-2,2.391400039E-1,3.860708877E-1
4.449774996E0,3.267619908E-1,-3.228199854E-2,2.566069961E-1,4.167285405E-1
4.454786612E0,3.538300097E-1,2.871999983E-3,2.779850066E-1,4.499773195E-1
4.459798302E0,3.959519863E-1,2.780600078E-2,2.939420044E-1,4.939160365E-1
4.464809994E0,4.226639867E-1,4.042600095E-2,3.209019899E-1,5.322191225E-1
4.469821764E0,4.276309907E-1,3.385100141E-2,3.261960149E-1,5.389044393E-1
4.474833381E0,4.255790114E-1,1.060200017E-2,3.175019920E-1,5.310719464E-1
4.479845061E0,4.190880060E-1,-1.733399928E-2,2.884329855E-1,5.090469639E-1
4.484856754E0,3.942250013E-1,-3.546300158E-2,2.442310005E-1,4.651018789E-1
4.489868446E0,3.772079945E-1,-6.299199909E-2,1.923120022E-1,4.280628099E-1
4.494880138E0,3.584449887E-1,-8.314800262E-2,1.560609937E-1,3.996891718E-1
4.499891831E0,3.542430103E-1,-9.849700332E-2,1.208629981E-1,3.870369934E-1
4.504903524E0,3.571389914E-1,-1.067150012E-1,1.004749984E-1,3.860460800E-1
4.509915217E0,3.737240136E-1,-9.602399915E-2,1.084479988E-1,4.008131924E-1
4.514926939E0,3.757919967E-1,-9.249100089E-2,1.344559938E-1,4.096982113E-1
4.519938631E0,3.869799972E-1,-8.661399782E-2,1.827470064E-1,4.366371161E-1
4.524950328E0,3.677319884E-1,-1.090430021E-1,2.340939939E-1,4.493519663E-1
4.529962020E0,3.327940106E-1,-1.285160035E-1,2.885029912E-1,4.588051794E-1
4.534973482E0,3.153850138E-1,-1.691839993E-1,2.949180007E-1,4.637537705E-1
4.539985167E0,2.896060050E-1,-2.213300020E-1,2.966699898E-1,4.699698828E-1
4.544997091E0,2.717419863E-1,-2.492379993E-1,3.008059859E-1,4.758650319E-1
4.550008775E0,2.452069968E-1,-2.672469914E-1,2.887839973E-1,4.636201277E-1
4.555020467E0,2.124720067E-1,-2.753100097E-1,2.842850089E-1,4.491747114E-1
4.560032174E0,1.898259968E-1,-2.712279856E-1,2.754499912E-1,4.306637051E-1
4.565043867E0,1.746689975E-1,-2.670120001E-1,2.761979997E-1,4.220071112E-1
4.570055554E0,1.668239981E-1,-2.603540123E-1,2.722730041E-1,4.120036975E-1
4.575067246E0,1.753540039E-1,-2.538569868E-1,2.614920139E-1,4.044384623E-1
4.580078938E0,1.788250059E-1,-2.450560033E-1,2.625220120E-1,4.011840404E-1
4.585090390E0,1.867969930E-1,-2.483070046E-1,2.681570053E-1,4.104359446E-1
4.590102081E0,1.760170013E-1,-2.657679915E-1,2.596539855E-1,4.111384223E-1
4.595114004E0,1.703869998E-1,-2.950240076E-1,2.652939856E-1,4.318006410E-1
4.600125483E0,1.580300033E-1,-3.121640086E-1,2.569800019E-1,4.341181540E-1
4.605137174E0,1.437750012E-1,-3.267239928E-1,2.536740005E-1,4.379158789E-1
4.610148851E0,1.461520046E-1,-3.246670067E-1,2.203090042E-1,4.186945558E-1
4.615160543E0,1.344780028E-1,-3.225100040E-1,2.087710053E-1,4.070409913E-1
4.620172236E0,1.415160000E-1,-3.061859906E-1,1.951889992E-1,3.897119250E-1
4.625183904E0,1.342899948E-1,-2.993539870E-1,2.098380029E-1,3.894593685E-1
4.630195596E0,1.386200041E-1,-2.782180011E-1,2.425590008E-1,3.942786205E-1
4.635207279E0,1.172180027E-1,-2.806330025E-1,2.928819954E-1,4.222260124E-1
4.640219202E0,1.055509970E-1,-2.709780037E-1,3.117530048E-1,4.263332352E-1
4.645230896E0,8.937899768E-2,-2.540310025E-1,3.258759975E-1,4.227475857E-1
4.650242367E0,7.832399756E-2,-2.585110068E-1,3.307949901E-1,4.270689812E-1
4.655254058E0,6.756699830E-2,-2.653000057E-1,3.313649893E-1,4.298280451E-1
4.660265750E0,6.869599968E-2,-2.602570057E-1,3.091309965E-1,4.098961117E-1
4.665277442E0,6.283800304E-2,-2.671920061E-1,2.879190147E-1,3.977908267E-1
4.670289361E0,6.607600302E-2,-2.791779935E-1,2.675729990E-1,3.923030717E-1
4.675300824E0,5.731600150E-2,-2.649089992E-1,2.597979903E-1,3.754422694E-1
4.680312490E0,2.059599943E-2,-2.599410117E-1,2.570289969E-1,3.661385394E-1
4.685324183E0,-1.566700079E-2,-2.379920036E-1,2.729479969E-1,3.624724233E-1
4.690335875E0,-4.191799834E-2,-2.420939952E-1,3.022269905E-1,3.894968227E-1
4.695347581E0,-4.197899997E-2,-2.508319914E-1,3.630779982E-1,4.432883453E-1
4.700359274E0,-5.608300120E-2,-2.641580105E-1,3.897320032E-1,4.741474368E-1
4.705370961E0,-8.361999691E-2,-2.821069956E-1,3.370459974E-1,4.474110696E-1
4.710382653E0,-2.642700076E-2,-2.938759923E-1,2.050250024E-1,3.593003435E-1
4.715394318E0,7.611899823E-2,-3.141669929E-1,9.101399779E-2,3.358251764E-1
4.720405935E0,1.857440025E-1,-3.524299860E-1,5.733999889E-3,3.984226503E-1
4.725417639E0,1.995210052E-1,-3.788290024E-1,-3.828300163E-2,4.298669943E-1
4.730429409E0,2.474090010E-1,-3.746429980E-1,-1.210200042E-2,4.491269844E-1
4.735441103E0,2.981230021E-1,-3.588150144E-1,1.008260027E-1,4.772749959E-1
4.740452728E0,2.938599885E-1,-3.736439943E-1,2.192540020E-1,5.234843309E-1
4.745464419E0,2.362249941E-1,-3.971379995E-1,2.993009984E-1,5.505469337E-1
4.750476188E0,1.637859941E-1,-4.076440036E-1,3.863770068E-1,5.850527129E-1
4.755487891E0,1.143369973E-1,-4.221470058E-1,4.689930081E-1,6.412764498E-1
4.760499507E0,9.634400159E-2,-4.196630120E-1,5.101990104E-1,6.676093472E-1
4.765511202E0,9.497799724E-2,-3.981780112E-1,5.021880269E-1,6.478883877E-1
4.770522894E0,1.123360023E-1,-3.866820037E-1,4.417069852E-1,5.977017737E-1
4.775534597E0,1.571709961E-1,-3.688339889E-1,3.557949960E-1,5.360329398E-1
4.780546289E0,2.007399946E-1,-3.493300080E-1,2.842699885E-1,4.930896737E-1
4.785557985E0,2.081329972E-1,-3.180629909E-1,2.567090094E-1,4.586751859E-1
4.790569677E0,2.011640072E-1,-2.915219963E-1,2.621740103E-1,4.406668172E-1
4.795581370E0,1.824440062E-1,-2.694939971E-1,3.042800128E-1,4.455324411E-1
4.800593083E0,1.615539938E-1,-2.495760024E-1,3.495030105E-1,4.588466282E-1
4.805604776E0,1.523890048E-1,-2.246620059E-1,4.232879877E-1,5.028599668E-1
4.810616483E0,1.501079947E-1,-2.212170064E-1,4.693729877E-1,5.401669887E-1
4.815628175E0,1.522359997E-1,-2.226250023E-1,4.886820018E-1,5.581646622E-1
4.820639867E0,1.422930062E-1,-2.145220041E-1,4.844059944E-1,5.485582533E-1
4.825651559E0,1.465560049E-1,-2.329619974E-1,4.385930002E-1,5.177970400E-1
4.830663251E0,1.388079971E-1,-2.419690043E-1,4.035530090E-1,4.905830105E-1
4.835674929E0,1.427340060E-1,-2.559410036E-1,3.811559975E-1,4.807896507E-1
4.840686621E0,1.441310048E-1,-2.700600028E-1,3.501330018E-1,4.650798540E-1
4.845698313E0,1.291030049E-1,-2.746759951E-1,3.015879989E-1,4.278665788E-1
4.850710000E0,1.332390010E-1,-3.033339977E-1,2.660700083E-1,4.249204571E-1
4.855721464E0,1.117210016E-1,-3.151380122E-1,2.246450037E-1,4.028137617E-1
4.860733404E0,1.072710007E-1,-3.412989974E-1,1.913249940E-1,4.057059607E-1
4.865744868E0,1.101220027E-1,-3.602600098E-1,1.726419926E-1,4.143903808E-1
4.870756789E0,1.151740029E-1,-3.601300120E-1,1.706099957E-1,4.148089285E-1
4.875768276E0,1.339800060E-1,-3.482129872E-1,1.706710011E-1,4.102822407E-1
4.880779966E0,1.382659972E-1,-3.505029976E-1,2.074189931E-1,4.301075168E-1
4.885791659E0,1.561059952E-1,-3.360919952E-1,2.542580068E-1,4.494152256E-1
4.890803351E0,1.409890056E-1,-3.523249924E-1,3.038519919E-1,4.861448683E-1
4.895815043E0,1.285440028E-1,-3.562459946E-1,3.539800048E-1,5.183981222E-1
4.900826736E0,9.993000329E-2,-3.478589952E-1,3.816649914E-1,5.259848398E-1
4.905838428E0,6.262099743E-2,-3.486610055E-1,3.874079883E-1,5.249484122E-1
4.910850120E0,3.537800163E-2,-3.373250067E-1,3.837299943E-1,5.121410662E-1
4.915861828E0,2.036100067E-2,-3.354949951E-1,3.660410047E-1,4.969481655E-1
4.920873521E0,3.274000017E-3,-3.287450075E-1,3.650589883E-1,4.912759550E-1
4.925885214E0,-6.370999850E-3,-3.314909935E-1,3.523589969E-1,4.838220035E-1
4.930896907E0,-2.518700063E-2,-3.198710084E-1,3.144379854E-1,4.492472523E-1
4.935908599E0,-3.208300099E-2,-3.011670113E-1,2.915340066E-1,4.203843059E-1
4.940920276E0,-2.975399978E-2,-2.849650085E-1,2.901439965E-1,4.077669620E-1
4.945931892E0,-2.295299992E-2,-2.758789957E-1,3.258840144E-1,4.275937924E-1
4.950943573E0,-2.387299947E-2,-2.285189927E-1,3.771489859E-1,4.416245098E-1
4.955955342E0,-1.339299977E-2,-2.052430063E-1,3.947229981E-1,4.450958429E-1
4.960967022E0,-3.624999896E-3,-1.559180021E-1,4.006499946E-1,4.299348581E-1
4.965978637E0,-1.080099959E-2,-1.139670014E-1,3.860439956E-1,4.026600372E-1
4.970990318E0,-1.736999955E-3,-8.427400142E-2,3.651950061E-1,3.747966342E-1
4.976002011E0,1.618400030E-2,-5.257499963E-2,3.382059932E-1,3.426504725E-1
4.981013703E0,3.570799902E-2,-2.371899970E-2,3.030009866E-1,3.060183818E-1
4.986025395E0,3.364599869E-2,-2.308999887E-3,2.528339922E-1,2.550733470E-1
4.991037088E0,-1.073000021E-3,2.145300061E-2,1.810979992E-1,1.823673981E-1
4.996048780E0,-8.848000318E-2,2.928899974E-2,1.811140031E-1,2.036880914E-1
5.001060462E0,-1.783200055E-1,2.839599922E-2,1.809210032E-1,2.556105760E-1
5.006072155E0,-2.286880016E-1,2.798300050E-2,1.874230057E-1,2.969993830E-1
5.011083848E0,-2.313300073E-1,2.520599961E-2,1.934199929E-1,3.025891742E-1
5.016095541E0,-2.339709997E-1,2.248499915E-2,1.990720034E-1,3.080221849E-1
5.021107234E0,-2.551679909E-1,8.000999689E-3,1.951559931E-1,3.213418448E-1
5.026118907E0,-2.803229988E-1,-1.568599977E-2,2.074320018E-1,3.490774550E-1
5.031130599E0,-2.838090062E-1,-3.690399975E-2,2.171079963E-1,3.592288119E-1
5.036142291E0,-2.450840026E-1,-7.021299750E-2,2.496130019E-1,3.567950169E-1
5.041153997E0,-2.000119984E-1,-1.108070016E-1,2.857509851E-1,3.659735190E-1
5.046165689E0,-1.301019937E-1,-1.566729993E-1,2.859050035E-1,3.510194133E-1
5.051177157E0,-8.479200304E-2,-2.099180073E-1,2.763249874E-1,3.572264719E-1
5.056188847E0,-5.169599876E-2,-2.847130001E-1,2.711290121E-1,3.965411831E-1
5.061200534E0,-2.124500088E-2,-3.451989889E-1,2.585769892E-1,4.318283818E-1
5.066212227E0,-1.208200026E-2,-4.055030048E-1,2.621999979E-1,4.830398540E-1
5.071224150E0,4.554000217E-3,-4.777959883E-1,2.236360013E-1,5.275630829E-1
5.076235829E0,1.453400031E-2,-5.405750275E-1,1.578949988E-1,5.633501825E-1
5.081247291E0,1.561400015E-2,-5.865709782E-1,1.030210033E-1,5.957538389E-1
5.086258981E0,3.578000003E-3,-6.443279982E-1,4.236099869E-2,6.457289102E-1
5.091270669E0,-2.620599978E-2,-6.705279946E-1,2.012800053E-2,6.713417032E-1
5.096282362E0,-4.556899890E-2,-6.843829751E-1,1.884399913E-2,6.861571879E-1
5.101294044E0,-7.100799680E-2,-6.952790022E-1,3.786199912E-2,6.999203937E-1
5.106305736E0,-9.771499783E-2,-7.056170106E-1,5.338900164E-2,7.143486347E-1
5.111317428E0,-1.303340048E-1,-7.154499888E-1,5.169399828E-2,7.290596058E-1
5.116329121E0,-1.409630030E-1,-7.130529881E-1,5.891799927E-2,7.292369043E-1
5.121340814E0,-1.372019947E-1,-7.153040171E-1,6.779500097E-2,7.314918908E-1
5.126352402E0,-1.196520030E-1,-6.868000031E-1,2.983799949E-2,6.977830266E-1
5.131364092E0,-1.027199998E-1,-6.420639753E-1,-3.725299984E-2,6.512951196E-1
5.136375875E0,-7.720799744E-2,-5.768470168E-1,-1.788720042E-1,6.088585628E-1
5.141387492E0,-4.372699931E-2,-4.746820033E-1,-3.371100128E-1,5.838477673E-1
5.146399178E0,1.286699995E-2,-2.812210023E-1,-5.158280134E-1,5.876473018E-1
5.151410870E0,7.760199904E-2,-3.266999871E-2,-7.237690091E-1,7.286501064E-1
5.156422572E0,1.309220046E-1,3.023439944E-1,-8.603150249E-1,9.212461149E-1
5.161434265E0,1.752520055E-1,6.884440184E-1,-8.949360251E-1,1.142619325E0
5.166445957E0,2.038210034E-1,1.118983030E0,-8.300179839E-1,1.408046831E0
5.171457649E0,3.085280061E-1,1.591639996E0,-8.175079823E-1,1.815716582E0
5.176469342E0,4.088279903E-1,2.052314997E0,-8.447279930E-1,2.256701698E0
5.181481015E0,4.641650021E-1,2.405347109E0,-8.136379719E-1,2.581307927E0
5.186492708E0,4.959119856E-1,2.653079033E0,-6.644560099E-1,2.779614873E0
5.191504396E0,4.273999929E-1,2.769110918E0,-4.734700024E-1,2.841622754E0
5.196516088E0,2.081370056E-1,2.746203899E0,-3.030009866E-1,2.770697831E0
5.201527780E0,-6.400699914E-2,2.596178055E0,-9.282299876E-2,2.598625309E0
5.206539482E0,-3.126339912E-1,2.400307894E0,-7.822999731E-3,2.420594802E0
5.211551174E0,-4.562920034E-1,2.199289083E0,-1.101349965E-1,2.248822933E0
5.216562646E0,-4.276770055E-1,2.067466974E0,-4.312520027E-1,2.154833080E0
5.221574336E0,-3.603250086E-1,1.904590011E0,-8.569869995E-1,2.119368759E0
5.226586259E0,-3.331199884E-1,1.679705024E0,-1.230247974E0,2.108527442E0
5.231597712E0,-3.246850073E-1,1.414405942E0,-1.518290043E0,2.100278357E0
5.236609634E0,-2.803870142E-1,1.142150998E0,-1.692988038E0,2.061391345E0
5.241621328E0,-1.753049940E-1,9.079719782E-1,-1.666370988E0,1.905764210E0
5.246633016E0,-4.182599857E-2,7.053279877E-1,-1.479506016E0,1.639565502E0
5.251644478E0,8.638799936E-2,4.962280095E-1,-1.176516056E0,1.279802779E0
5.256656167E0,-7.297900319E-2,4.045100138E-2,-6.469770074E-1,6.523353942E-1
5.261667859E0,1.091319993E-1,-1.450919956E-1,-2.898460031E-1,3.420119676E-1
5.266679572E0,7.142210007E-1,-1.558999997E-3,-2.222999930E-1,7.480182853E-1
5.271691264E0,1.055449963E0,6.698799878E-2,-2.639780045E-1,1.090021285E0
5.276702946E0,1.152915001E0,2.213699929E-2,-4.071600139E-1,1.222899147E0
5.281714639E0,1.225221992E0,-6.143999845E-2,-5.074809790E-1,1.327584553E0
5.286726341E0,1.236206055E0,-1.685959995E-1,-5.755569935E-1,1.374007232E0
5.291738033E0,1.166731000E0,-2.529810071E-1,-5.890510082E-1,1.331255688E0
5.296749651E0,1.021507978E0,-3.089030087E-1,-5.191469789E-1,1.186765859E0
5.301761341E0,8.606079817E-1,-3.364149928E-1,-4.468370080E-1,1.026393909E0
5.306773033E0,7.375239730E-1,-3.123359978E-1,-4.250349998E-1,9.067249513E-1
5.311784740E0,6.393319964E-1,-2.515090108E-1,-4.450460076E-1,8.185768950E-1
5.316796432E0,5.511929989E-1,-1.877440065E-1,-5.056369901E-1,7.711875905E-1
5.321808124E0,5.143600106E-1,-1.071930006E-1,-5.661140084E-1,7.723610752E-1
5.326819817E0,4.897910058E-1,-4.130000016E-4,-6.127330065E-1,7.844342784E-1
5.331831510E0,5.025910139E-1,1.131229997E-1,-6.551219821E-1,8.334142738E-1
5.336843218E0,5.237489939E-1,2.047010064E-1,-6.890130043E-1,8.893561889E-1
5.341854911E0,5.344830155E-1,2.886919975E-1,-7.541919947E-1,9.684114457E-1
5.346866603E0,5.537989736E-1,3.292089999E-1,-8.126659989E-1,1.037062146E0
5.351878299E0,5.767760277E-1,3.501439989E-1,-8.833190203E-1,1.111541226E0
5.356889991E0,6.081320047E-1,3.204709888E-1,-9.334239960E-1,1.159226702E0
5.361901458E0,6.408579946E-1,2.570239902E-1,-9.774910212E-1,1.196766058E0
5.366913148E0,6.934720278E-1,2.001910061E-1,-1.069061041E0,1.289911393E0
5.371925062E0,7.537840009E-1,1.189400032E-1,-1.134961009E0,1.367652564E0
5.376936526E0,6.895449758E-1,-6.629899889E-2,-9.461100101E-1,1.172600521E0
5.381948211E0,7.016689777E-1,-2.199620008E-1,-8.047119975E-1,1.090084416E0
5.386959904E0,7.320160270E-1,-3.447319865E-1,-6.882330179E-1,1.062239282E0
5.391971600E0,7.754240036E-1,-4.575200081E-1,-5.912330151E-1,1.077108825E0
5.396983292E0,8.174859881E-1,-5.464890003E-1,-5.338839889E-1,1.118912723E0
5.401994985E0,8.534809947E-1,-6.188449860E-1,-4.892539978E-1,1.162225623E0
5.407006677E0,8.860639930E-1,-6.962080002E-1,-5.033869743E-1,1.234185329E0
5.412018355E0,8.944669962E-1,-7.426210046E-1,-5.603839755E-1,1.290576369E0
5.417030048E0,9.072600007E-1,-7.773000002E-1,-6.427199841E-1,1.356615265E0
5.422041741E0,9.010800123E-1,-7.857210040E-1,-7.219619751E-1,1.396614399E0
5.427053434E0,8.672839999E-1,-7.962790132E-1,-7.706810236E-1,1.407192611E0
5.432065127E0,8.019559979E-1,-7.680429816E-1,-7.945389748E-1,1.365399439E0
5.437076742E0,7.361130118E-1,-7.177169919E-1,-7.922040224E-1,1.297908803E0
5.442088499E0,6.580070257E-1,-6.332960129E-1,-7.877860069E-1,1.206086182E0
5.447100117E0,6.258379817E-1,-5.127189755E-1,-7.769039869E-1,1.121665606E0
5.452111778E0,5.688139796E-1,-4.154840112E-1,-7.017899752E-1,9.943266446E-1
5.457123470E0,4.856199920E-1,-3.604010046E-1,-5.527780056E-1,8.193162907E-1
5.462135163E0,3.817969859E-1,-3.234649897E-1,-4.130760133E-1,6.488685003E-1
5.467146932E0,2.623350024E-1,-2.618159950E-1,-3.841280043E-1,5.337804721E-1
5.472158554E0,2.182260007E-1,-2.191610038E-1,-4.298439920E-1,5.295469672E-1
5.477170245E0,2.240220010E-1,-1.718080044E-1,-4.484170079E-1,5.298883470E-1
5.482181937E0,2.666400075E-1,-1.367409974E-1,-4.802060127E-1,5.660325155E-1
5.487193629E0,3.706269860E-1,-1.119510010E-1,-5.363259912E-1,6.614703003E-1
5.492205093E0,4.134860039E-1,-1.112869978E-1,-5.303199887E-1,6.816118850E-1
5.497216783E0,3.575209975E-1,-1.101500019E-1,-4.735789895E-1,6.035158208E-1
5.502228475E0,2.755819857E-1,-1.370829940E-1,-4.231680036E-1,5.232669847E-1
5.507240398E0,2.058389932E-1,-1.872709990E-1,-3.302139938E-1,4.318349220E-1
5.512252088E0,9.682799876E-2,-2.461089939E-1,-2.005909979E-1,3.319368113E-1
5.517263549E0,-2.012399957E-2,-2.801609933E-1,-1.374779940E-1,3.127224910E-1
5.522275245E0,-9.849900007E-2,-3.040950000E-1,-1.086359993E-1,3.376056907E-1
5.527286937E0,-9.314800054E-2,-3.113389909E-1,-1.360300034E-1,3.522962945E-1
5.532298629E0,-6.466200203E-2,-3.091979921E-1,-1.530189961E-1,3.509977008E-1
5.537310322E0,-2.753899992E-2,-3.168300092E-1,-1.646459997E-1,3.581172384E-1
5.542322014E0,1.526600029E-2,-2.840900123E-1,-1.803410053E-1,3.368427883E-1
5.547333701E0,8.199000359E-2,-2.350330055E-1,-1.605920047E-1,2.962307653E-1
5.552345394E0,1.509139985E-1,-1.768539995E-1,-1.318880022E-1,2.672953744E-1
5.557357011E0,2.475669980E-1,-1.145019978E-1,-1.153659970E-1,2.961577945E-1
5.562368788E0,3.478820026E-1,-6.478399783E-2,-1.268299967E-1,3.759051771E-1
5.567380482E0,4.147869945E-1,-3.943900019E-2,-1.514450014E-1,4.433275019E-1
5.572392098E0,4.771690071E-1,-3.600199893E-2,-1.563329995E-1,5.034147514E-1
5.577403793E0,5.168250203E-1,-6.387100369E-2,-1.628949940E-1,5.456394284E-1
5.582415486E0,5.481929779E-1,-9.666299820E-2,-1.433950067E-1,5.748229329E-1
5.587427177E0,5.762190223E-1,-1.319189966E-1,-1.009310037E-1,5.996816245E-1
5.592438869E0,5.847039819E-1,-1.886720061E-1,-4.787899926E-2,6.162534145E-1
5.597450561E0,6.159340143E-1,-2.455369979E-1,-9.933999740E-3,6.631453926E-1
5.602462269E0,6.529600024E-1,-3.001820147E-1,-6.169999833E-4,7.186559590E-1
5.607473962E0,6.864680052E-1,-3.478200138E-1,-3.754699975E-2,7.704718433E-1
5.612485655E0,7.467839718E-1,-4.077410102E-1,-1.079170033E-1,8.576625861E-1
5.617497372E0,8.285030127E-1,-4.393610060E-1,-2.037840039E-1,9.596787253E-1
5.622509064E0,8.754640222E-1,-4.687620103E-1,-2.944459915E-1,1.035796080E0
5.627520751E0,9.006189704E-1,-5.028600097E-1,-3.036679924E-1,1.075265999E0
5.632532213E0,9.046909809E-1,-5.271540284E-1,-2.780930102E-1,1.083371064E0
5.637544134E0,8.674960136E-1,-5.246490240E-1,-1.838030070E-1,1.030334643E0
5.642555833E0,8.042629957E-1,-4.952690005E-1,-9.930899739E-2,9.497329236E-1
5.647567526E0,7.436069846E-1,-4.558770061E-1,-9.611000121E-2,8.775034613E-1
5.652579011E0,6.760500073E-1,-3.897030056E-1,-6.278800219E-2,7.828501633E-1
5.657590702E0,5.946300030E-1,-3.158980012E-1,-4.667900130E-2,6.749483808E-1
5.662602394E0,5.206040144E-1,-2.345000058E-1,-1.949300058E-2,5.713131975E-1
5.667614071E0,4.652569890E-1,-1.504130065E-1,-2.398000099E-3,4.889722781E-1
5.672625764E0,4.095770121E-1,-9.471999854E-2,3.262500092E-2,4.216510377E-1
5.677637456E0,3.349519968E-1,-4.582399875E-2,7.105000317E-2,3.454573519E-1
5.682649073E0,2.605319917E-1,-2.768499963E-2,7.573200017E-2,2.727246116E-1
5.687660764E0,2.234790027E-1,-1.892700046E-2,6.152199954E-2,2.325640824E-1
5.692672456E0,1.761849970E-1,-9.951000102E-3,5.440999940E-2,1.846635416E-1
5.697684148E0,1.492529958E-1,-3.672200069E-2,3.580600023E-2,1.578196178E-1
5.702695846E0,1.165350005E-1,-7.767199725E-2,1.980300061E-2,1.414408157E-1
5.707707538E0,6.894599646E-2,-1.231840029E-1,-3.010000102E-3,1.411981201E-1
5.712719225E0,3.010500036E-2,-1.541450024E-1,-2.545600012E-2,1.591068846E-1
5.717730917E0,-4.995999858E-3,-1.873210073E-1,-2.896899916E-2,1.896136142E-1
5.722742605E0,-3.181499988E-2,-2.203540057E-1,-3.973500058E-2,2.261569197E-1
5.727754298E0,-3.674999997E-2,-2.629170120E-1,-7.160200179E-2,2.749595686E-1
5.732765996E0,-3.686799854E-2,-2.935189903E-1,-1.006959975E-1,3.124937293E-1
5.737777689E0,-3.241699934E-2,-3.002069890E-1,-1.134179980E-1,3.225503688E-1
5.742789155E0,1.772999996E-3,-2.854970098E-1,-8.475899696E-2,2.978183568E-1
5.747800846E0,3.940000013E-2,-3.020260036E-1,-3.675600141E-2,3.067948345E-1
5.752812558E0,5.262999982E-2,-3.352650106E-1,1.113300025E-1,3.571651070E-1
5.757824250E0,6.052900106E-2,-3.397400081E-1,2.707560062E-1,4.386295111E-1
5.762835943E0,8.864799887E-2,-3.107909858E-1,3.904370070E-1,5.068437244E-1
5.767847650E0,1.620170027E-1,-2.821159959E-1,4.557240009E-1,5.599315220E-1
5.772859342E0,1.957910061E-1,-2.655510008E-1,4.590860009E-1,5.653418509E-1
5.777871020E0,2.121919990E-1,-2.323749959E-1,3.747070134E-1,4.893147546E-1
5.782882713E0,1.862190068E-1,-1.944320053E-1,2.516410053E-1,3.685166464E-1
5.787894406E0,1.795060039E-1,-1.637389958E-1,1.487160027E-1,2.848671859E-1
5.792906008E0,1.589459926E-1,-1.210829988E-1,6.504199654E-2,2.101318217E-1
5.797917698E0,1.389060020E-1,-8.795899898E-2,2.779100090E-2,1.667453227E-1
5.802929390E0,1.356630027E-1,-6.918700039E-2,1.453400031E-2,1.529788498E-1
5.807941159E0,1.138340011E-1,-5.031999946E-2,2.918400057E-2,1.278357855E-1
5.812952777E0,8.556000143E-2,-2.656600066E-2,2.680600062E-2,9.351378457E-2
5.817964462E0,7.660199702E-2,-1.472999994E-2,3.796799853E-2,8.675487167E-2
5.822976154E0,7.707100362E-2,1.918999944E-3,7.152000070E-2,1.051605090E-1
5.827987847E0,6.588699669E-2,6.699000020E-3,1.106289998E-1,1.289369944E-1
5.832999529E0,2.715799958E-2,2.361599915E-2,1.226570010E-1,1.278280574E-1
5.838011221E0,1.759400032E-2,1.186900027E-2,1.015210003E-1,1.037156474E-1
5.843022914E0,3.421000019E-2,-5.729199946E-2,1.178259999E-1,1.354092447E-1
5.848034602E0,-3.254099935E-2,-1.811130047E-1,1.310320050E-1,2.258987017E-1
5.853046065E0,-1.710840017E-1,-2.756370008E-1,1.114360020E-1,3.430210990E-1
5.858057750E0,-2.011020035E-1,-2.408690006E-1,7.164900005E-2,3.218593954E-1
5.863069442E0,-2.046580017E-1,-1.893920004E-1,9.785000235E-3,2.790160814E-1
5.868081365E0,-2.286570072E-1,-1.545519978E-1,-3.666900098E-2,2.784150905E-1
5.873092829E0,-2.211890072E-1,-1.555709988E-1,-7.528500259E-2,2.807040152E-1
5.878104519E0,-2.177570015E-1,-2.018949986E-1,-5.077899992E-2,3.012610313E-1
5.883116227E0,-2.068099976E-1,-2.361389995E-1,-2.773600072E-2,3.151210686E-1
5.888127919E0,-1.885450035E-1,-2.918179929E-1,5.528999958E-3,3.474730625E-1
5.893139615E0,-1.587900072E-1,-3.235169947E-1,6.510300189E-2,3.662183954E-1
5.898151233E0,-1.365479976E-1,-3.360570073E-1,9.010999650E-2,3.737639352E-1
5.903163000E0,-6.340699643E-2,-3.798109889E-1,1.604250073E-1,4.171486755E-1
5.908174675E0,-1.892489940E-1,-4.228140116E-1,2.399770021E-1,5.217047361E-1
5.913186367E0,-2.368219942E-1,-4.606760144E-1,2.891609967E-1,5.932294069E-1
5.918197959E0,-2.365420014E-1,-4.959990084E-1,3.531390131E-1,6.532031057E-1
5.923209649E0,-2.062380016E-1,-5.169540048E-1,4.175179899E-1,6.957706721E-1
5.928221337E0,-1.954450011E-1,-5.641319752E-1,4.707129896E-1,7.602725514E-1
5.933233029E0,-2.223040015E-1,-6.086699963E-1,5.247730017E-1,8.338374762E-1
5.938244721E0,-1.976359934E-1,-6.436250210E-1,5.797290206E-1,8.884812271E-1
5.943256413E0,-1.558620036E-1,-6.428290009E-1,6.311309934E-1,9.142474607E-1
5.948267877E0,-1.391520053E-1,-6.373400092E-1,6.445119977E-1,9.170394120E-1
5.953279562E0,-1.398990005E-1,-6.246910095E-1,6.674659848E-1,9.248358928E-1
5.958291255E0,-1.021160036E-1,-5.859879851E-1,6.860409975E-1,9.079988145E-1
5.963302947E0,-6.400299817E-2,-5.500320196E-1,6.609380245E-1,8.622474579E-1
5.968314620E0,-3.940900043E-2,-5.095220208E-1,6.749320030E-1,8.465807509E-1
5.973326313E0,-4.480999894E-3,-4.884969890E-1,6.455739737E-1,8.095771384E-1
5.978338005E0,-3.377000103E-3,-4.845460057E-1,5.509750247E-1,7.337368150E-1
5.983349697E0,-7.434599847E-2,-5.140770078E-1,4.414040148E-1,6.816450702E-1
5.988361395E0,-1.341499984E-1,-5.197460055E-1,3.311980069E-1,6.307331069E-1
5.993373088E0,-1.669259965E-1,-5.257350206E-1,1.784780025E-1,5.797551187E-1
5.998384781E0,-1.760939956E-1,-4.627789855E-1,3.077399917E-2,4.961053555E-1
6.003396479E0,-2.201739997E-1,-4.357289970E-1,-3.344700113E-2,4.893414461E-1
6.008408094E0,-2.518300116E-1,-3.942260146E-1,-2.859799936E-2,4.686687006E-1
6.013419779E0,-2.481739968E-1,-3.431490064E-1,6.295000203E-3,4.235341784E-1
6.018431472E0,-1.871050000E-1,-2.636190057E-1,4.940899834E-2,3.270237152E-1
6.023443178E0,-1.048749983E-1,-1.772370040E-1,9.359999746E-2,2.262137936E-1
6.028454641E0,-6.210700050E-2,-1.365450025E-1,7.370600104E-2,1.671358483E-1
6.033466573E0,-3.895600140E-2,-1.198709980E-1,5.880700052E-2,1.390859069E-1
6.038478267E0,-5.806500092E-2,-1.196290031E-1,1.204899997E-1,1.794449295E-1
6.043489959E0,-7.868699729E-2,-1.477340013E-1,2.008650005E-1,2.614645810E-1
6.048501670E0,-9.155700356E-2,-1.611279994E-1,2.924540043E-1,3.462286264E-1
6.053513132E0,-4.836399853E-2,-1.506250054E-1,3.604109883E-1,3.936026538E-1
6.058524808E0,-1.963000046E-3,-1.283130050E-1,3.987500072E-1,4.188909749E-1
6.063536501E0,3.381000087E-2,-1.228369996E-1,4.291250110E-1,4.476386039E-1
6.068548424E0,6.847099960E-2,-1.247040033E-1,4.333289862E-1,4.560848347E-1
6.073559877E0,1.276099980E-1,-1.125850007E-1,4.051870108E-1,4.394726472E-1
6.078571568E0,1.711499989E-1,-1.272449940E-1,3.060419858E-1,3.730218595E-1
6.083583246E0,1.463930011E-1,-1.753309965E-1,2.678230107E-1,3.519957871E-1
6.088594938E0,5.975100026E-2,-2.133579999E-1,2.863900065E-1,3.620926042E-1
6.093606664E0,-1.731700078E-2,-2.294079959E-1,3.209539950E-1,3.948915978E-1
6.098618356E0,-7.816399634E-2,-2.428269982E-1,3.106760085E-1,4.019877406E-1
6.103630002E0,-1.138600037E-1,-2.800860107E-1,2.871550024E-1,4.169775404E-1
6.108641693E0,-1.252759993E-1,-2.887409925E-1,2.438910007E-1,3.981811862E-1
6.113653385E0,-9.206599742E-2,-3.214980066E-1,2.322700024E-1,4.071688472E-1
6.118665077E0,-5.491099879E-2,-3.520109951E-1,2.304320037E-1,4.242945520E-1
6.123676541E0,-3.231500089E-2,-3.826189935E-1,2.101369947E-1,4.377203560E-1
6.128688467E0,-3.304899856E-2,-4.299499989E-1,1.809729934E-1,4.676542122E-1
6.133700161E0,-1.707500033E-2,-4.628550112E-1,1.988810003E-1,5.040634576E-1
6.138711854E0,3.591300175E-2,-4.814699888E-1,2.322359979E-1,5.357580168E-1
6.143723546E0,8.293099701E-2,-4.713299870E-1,2.992149889E-1,5.644104150E-1
6.148735007E0,1.105989963E-1,-4.873409867E-1,3.593730032E-1,6.155341833E-1
6.153746698E0,1.333449930E-1,-4.840289950E-1,4.247890115E-1,6.576554261E-1
6.158758395E0,1.512639970E-1,-4.638530016E-1,4.723950028E-1,6.791151909E-1
6.163770087E0,1.530590057E-1,-4.626959860E-1,4.911279976E-1,6.918969177E-1
6.168781794E0,1.437849998E-1,-4.519389868E-1,4.704520106E-1,6.680180149E-1
6.173793486E0,1.237350032E-1,-4.316320121E-1,4.231460094E-1,6.169838654E-1
6.178805178E0,1.046660021E-1,-4.043439925E-1,3.313890100E-1,5.331676211E-1
6.183816871E0,7.730200142E-2,-3.770799935E-1,2.705039978E-1,4.704650186E-1
6.188828488E0,1.889999956E-2,-3.927530050E-1,1.904889941E-1,4.369189740E-1
6.193840163E0,-1.860200055E-2,-4.129509926E-1,1.776269972E-1,4.499176667E-1
6.198851856E0,-6.608299911E-2,-4.162609875E-1,1.186430007E-1,4.378542384E-1
6.203863553E0,-1.163429990E-1,-4.267930090E-1,3.409999888E-3,4.423794684E-1
6.208875245E0,-9.041099995E-2,-4.327250123E-1,-4.825200140E-2,4.446946602E-1
6.213886938E0,-2.764800005E-2,-4.699490070E-1,-5.476899818E-2,4.739368357E-1
6.218898616E0,7.972000167E-3,-4.856230021E-1,-3.384599835E-2,4.868663107E-1
6.223910308E0,7.032100111E-2,-4.871749878E-1,-2.807099931E-2,4.930238259E-1
6.228922001E0,1.003049985E-1,-4.599039853E-1,5.608699843E-2,4.740448500E-1
6.233933449E0,8.046799898E-2,-4.512670040E-1,1.814679950E-1,4.929986217E-1
6.238945370E0,5.401099846E-2,-4.183790088E-1,2.496760041E-1,4.902002549E-1
6.243956849E0,2.666700073E-2,-4.328449965E-1,3.202939928E-1,5.391235125E-1
6.248968539E0,7.151999976E-3,-4.159910083E-1,3.494420052E-1,5.433317449E-1
6.253980245E0,4.292000085E-3,-3.562150002E-1,3.129909933E-1,4.742055561E-1
6.258991938E0,2.015499957E-2,-3.278059959E-1,2.545039952E-1,4.154940175E-1
6.264003630E0,4.721900076E-2,-2.997359931E-1,1.837300062E-1,3.547224476E-1
6.269015312E0,1.083630025E-1,-2.720969915E-1,1.404809952E-1,3.248295293E-1
6.274026930E0,1.584469974E-1,-2.303809971E-1,1.262400001E-1,3.067855805E-1
6.279038620E0,1.421010047E-1,-1.931820065E-1,1.678539962E-1,2.927233288E-1
6.284050327E0,1.446399987E-1,-1.413889974E-1,2.404399961E-1,3.142021158E-1
6.289062020E0,1.631560028E-1,-8.714000136E-2,2.945410013E-1,3.478040577E-1
6.294073683E0,1.626060009E-1,-6.389900297E-2,3.144539893E-1,3.597292113E-1
6.299085147E0,1.458909959E-1,-5.729699880E-2,3.128519952E-1,3.499192759E-1
6.304097068E0,1.297239959E-1,-4.573100060E-2,3.369219899E-1,3.639176649E-1
6.309108748E0,1.117750034E-1,-4.364499822E-2,3.373009861E-1,3.580090675E-1
6.314120440E0,1.154349968E-1,-6.077799946E-2,3.098379970E-1,3.361826707E-1
6.319131902E0,9.848199785E-2,-1.088960022E-1,2.900300026E-1,3.250760612E-1
6.324143823E0,6.382899731E-2,-1.638929993E-1,2.914539874E-1,3.404122249E-1
6.329155287E0,4.927099869E-2,-2.498240024E-1,2.738429904E-1,3.739380254E-1
6.334166957E0,4.481900111E-2,-3.379560113E-1,2.770810127E-1,4.393141200E-1
6.339178649E0,4.550100118E-2,-4.282869995E-1,2.889760137E-1,5.186590706E-1
6.344190342E0,6.257200241E-2,-4.922809899E-1,2.931799889E-1,5.763769030E-1
6.349202024E0,9.563200176E-2,-5.708209872E-1,2.596989870E-1,6.343702728E-1
6.354213716E0,1.046959981E-1,-6.375330091E-1,2.106370032E-1,6.795421523E-1
6.359225334E0,9.274300188E-2,-6.874849796E-1,1.743630022E-1,7.152896743E-1
6.364237019E0,1.088960022E-1,-7.137879729E-1,1.180299968E-1,7.316301591E-1
6.369248711E0,1.544570029E-1,-7.118330002E-1,7.012700289E-2,7.317656609E-1
6.374260398E0,1.681430042E-1,-6.814389825E-1,2.812599950E-2,7.024401957E-1
6.379272091E0,1.785009950E-1,-6.202740073E-1,-1.971800067E-2,6.457485958E-1
6.384283554E0,2.111040056E-1,-5.523030162E-1,-4.795400053E-2,5.932142185E-1
6.389295470E0,2.348940074E-1,-4.582110047E-1,-3.394100070E-2,5.160276263E-1
6.394306934E0,2.385919988E-1,-3.640559912E-1,1.164800022E-2,4.354291935E-1
6.399318865E0,2.599259913E-1,-2.915439904E-1,4.390700161E-2,3.930486536E-1
6.404330329E0,2.635419965E-1,-2.167789936E-1,4.473700002E-2,3.441640817E-1
6.409342245E0,2.802770138E-1,-1.732700020E-1,4.972599819E-2,3.332422136E-1
6.414353708E0,2.750369906E-1,-1.583220065E-1,9.121800214E-2,3.301998302E-1
6.419365404E0,2.948580086E-1,-1.410979927E-1,1.079500020E-1,3.442427802E-1
6.424377096E0,3.321869969E-1,-1.551990062E-1,1.144739985E-1,3.841083555E-1
6.429388797E0,3.796310127E-1,-1.862560064E-1,1.344449967E-1,4.437189007E-1
6.434400490E0,4.068669975E-1,-2.486429960E-1,1.092780009E-1,4.891888946E-1
6.439412182E0,4.168309867E-1,-3.255090117E-1,8.444999903E-2,5.355707148E-1
6.444423869E0,4.426240027E-1,-4.098640084E-1,2.969899960E-2,6.039756152E-1
6.449435562E0,4.675199986E-1,-5.015439987E-1,8.476999588E-3,6.857063447E-1
6.454447227E0,4.799779952E-1,-5.886510015E-1,-4.515799880E-2,7.608732629E-1
6.459458843E0,4.966160059E-1,-6.785179973E-1,-1.303009987E-1,8.508774766E-1
6.464470539E0,4.918079972E-1,-7.591490149E-1,-2.390590012E-1,9.355915450E-1
6.469482231E0,4.406909943E-1,-8.136460185E-1,-3.682760000E-1,9.959194787E-1
6.474493680E0,3.329930007E-1,-8.273890018E-1,-4.914399981E-1,1.018317323E0
6.479505371E0,1.584089994E-1,-7.614780068E-1,-5.319120288E-1,9.422699042E-1
6.484517063E0,-5.379199982E-2,-6.014590263E-1,-5.471550226E-1,8.148773886E-1
6.489528765E0,-3.076890111E-1,-3.804129958E-1,-4.818199873E-1,6.866855722E-1
6.494540458E0,-5.702350140E-1,-1.029269993E-1,-3.354839981E-1,6.695606405E-1
6.499552154E0,-7.395129800E-1,2.328960001E-1,-1.494420022E-1,7.895903409E-1
6.504563846E0,-8.323479891E-1,6.099280119E-1,7.345499843E-2,1.034510025E0
6.509575539E0,-8.228160143E-1,1.012022018E0,2.370849997E-1,1.325678715E0
6.514587223E0,-9.061800241E-1,1.318305016E0,1.531089991E-1,1.607026047E0
6.519598839E0,-9.701780081E-1,1.595759988E0,2.018920034E-1,1.878418400E0
6.524610620E0,-1.077134967E0,1.822798014E0,1.515219957E-1,2.122680205E0
6.529622237E0,-1.179154038E0,2.073561907E0,2.368430048E-1,2.397114481E0
6.534633927E0,-1.244807005E0,2.321743965E0,4.055350125E-1,2.665426451E0
6.539645626E0,-1.347802997E0,2.574565887E0,5.239329934E-1,2.952874567E0
6.544657318E0,-1.361047983E0,2.803350925E0,5.155609846E-1,3.158643879E0
6.549669015E0,-1.382261038E0,2.955553055E0,3.443779945E-1,3.280935178E0
6.554680479E0,-1.425704002E0,3.062372923E0,9.604399651E-2,3.379346722E0
6.559692159E0,-1.491476059E0,3.059287071E0,-1.727360040E-1,3.407869708E0
6.564703851E0,-1.529618979E0,2.970252991E0,-5.008239746E-1,3.378307520E0
6.569715544E0,-1.514158964E0,2.733093023E0,-8.411250114E-1,3.235732703E0
6.574727250E0,-1.524592996E0,2.390872955E0,-1.096245050E0,3.040133303E0
6.579738942E0,-1.511134028E0,2.000996113E0,-1.223588943E0,2.790104191E0
6.584750635E0,-1.443061948E0,1.582551956E0,-1.256868005E0,2.483267134E0
6.589762252E0,-1.373383045E0,1.188138962E0,-1.232187033E0,2.194570588E0
6.594774019E0,-1.285503983E0,7.842010260E-1,-1.170987010E0,1.907538288E0
6.599785642E0,-1.208943963E0,3.874259889E-1,-1.045660973E0,1.644704008E0
6.604797332E0,-1.135164976E0,3.688700125E-2,-9.370779991E-1,1.472438573E0
6.609809034E0,-1.012855053E0,-2.988539934E-1,-8.355330229E-1,1.346589952E0
6.614820727E0,-9.570940137E-1,-6.384599805E-1,-7.060269713E-1,1.349864505E0
6.619832419E0,-9.472659826E-1,-9.646949768E-1,-5.169039965E-1,1.447459492E0
6.624844101E0,-9.325349927E-1,-1.275658965E0,-3.497479856E-1,1.618410010E0
6.629855794E0,-8.493639827E-1,-1.543763041E0,-2.207349986E-1,1.775766720E0
6.634867492E0,-7.262970209E-1,-1.759421945E0,-1.560180038E-1,1.909820557E0
6.639879185E0,-6.061689854E-1,-1.941735029E0,-1.196369976E-1,2.037667484E0
6.644890661E0,-5.032690167E-1,-2.076339960E0,-8.998099715E-2,2.138355423E0
6.649902351E0,-3.934940100E-1,-2.184745073E0,-2.147199959E-2,2.220002166E0
6.654914044E0,-2.886840105E-1,-2.238205910E0,9.275999852E-3,2.256765428E0
6.659925736E0,-2.006269991E-1,-2.239097118E0,7.417199761E-2,2.249290685E0
6.664937428E0,-1.339779943E-1,-2.184993029E0,1.181960031E-1,2.192285322E0
6.669949065E0,-1.125470027E-1,-2.085454941E0,1.103599966E-1,2.091403468E0
6.674960755E0,-7.633599639E-2,-1.950018048E0,7.937999815E-2,1.953125382E0
6.679972461E0,-1.114180014E-1,-1.771476030E0,6.344600022E-2,1.776109989E0
6.684984154E0,-2.128539979E-1,-1.576104045E0,4.958999809E-3,1.590419874E0
6.689995846E0,-3.183540106E-1,-1.380627990E0,-4.106999934E-2,1.417451822E0
6.695007529E0,-3.919720054E-1,-1.156309009E0,-1.466239989E-1,1.229711825E0
6.700018993E0,-4.599600136E-1,-9.448180199E-1,-2.882350087E-1,1.089643852E0
6.705030914E0,-5.078300238E-1,-7.575060129E-1,-4.413869977E-1,1.013177761E0
6.710042603E0,-5.708780289E-1,-5.894079804E-1,-6.157209873E-1,1.025873201E0
6.715054295E0,-6.344959736E-1,-4.642609954E-1,-7.763100266E-1,1.104889438E0
6.720065757E0,-6.988109946E-1,-3.506399989E-1,-8.473119736E-1,1.152919249E0
6.725077447E0,-7.753059864E-1,-2.673609853E-1,-8.547490239E-1,1.184557792E0
6.730089135E0,-8.265900016E-1,-1.881999969E-1,-8.213120103E-1,1.180348969E0
6.735100827E0,-8.441460133E-1,-1.061450019E-1,-7.526990175E-1,1.135959975E0
6.740112519E0,-8.497809768E-1,-3.327900171E-2,-6.939010024E-1,1.097603663E0
6.745124151E0,-8.714630008E-1,4.255999811E-3,-6.189110279E-1,1.068885745E0
6.750135918E0,-9.040549994E-1,2.802800015E-2,-5.605840087E-1,1.064121911E0
6.755147540E0,-9.402449727E-1,4.289200157E-2,-4.835219979E-1,1.058155875E0
6.760159231E0,-9.891319871E-1,2.746500075E-2,-3.881140053E-1,1.062905873E0
6.765170923E0,-1.073637962E0,-3.684000112E-3,-3.142769933E-1,1.118696596E0
6.770182600E0,-1.150966048E0,-3.870400041E-2,-2.658700049E-1,1.181908500E0
6.775194293E0,-1.207646966E0,-5.640799925E-2,-2.840279937E-1,1.241879607E0
6.780205961E0,-1.234994054E0,-6.659000367E-2,-3.087800145E-1,1.274750814E0
6.785217653E0,-1.289808035E0,-8.804500103E-2,-2.681230009E-1,1.320320655E0
6.790229117E0,-1.357774019E0,-9.201800078E-2,-2.080789953E-1,1.376704205E0
6.795240807E0,-1.377938032E0,-1.027629972E-1,-1.383479983E-1,1.388673332E0
6.800252504E0,-1.377171993E0,-1.205139980E-1,-1.009920016E-1,1.386118937E0
6.805264197E0,-1.337349057E0,-1.432079971E-1,-6.707499921E-2,1.346666286E0
6.810275814E0,-1.245594978E0,-1.545429975E-1,-3.198599815E-2,1.255553062E0
6.815287581E0,-1.128798962E0,-1.738889962E-1,4.323000088E-3,1.142122221E0
6.820299276E0,-1.010570049E0,-2.155919969E-1,2.096600085E-2,1.033523733E0
6.825310886E0,-8.627870083E-1,-2.727060020E-1,3.711099923E-2,9.056197941E-1
6.830322576E0,-7.026860118E-1,-3.143280149E-1,4.339800030E-2,7.710078589E-1
6.835334346E0,-5.489689708E-1,-3.690809906E-1,5.182399973E-2,6.635310358E-1
6.840346040E0,-3.969469965E-1,-3.987550139E-1,5.299999937E-2,5.651384601E-1
6.845357732E0,-2.810820043E-1,-4.555119872E-1,7.509700209E-2,5.404977552E-1
6.850369348E0,-1.908300072E-1,-5.271040201E-1,8.958700299E-2,5.676976050E-1
6.855381048E0,-1.370380074E-1,-6.012049913E-1,1.060260013E-1,6.256743322E-1
6.860392740E0,-1.210089996E-1,-6.775389910E-1,1.037380025E-1,6.960343637E-1
6.865404189E0,-1.186190024E-1,-7.369610071E-1,7.635200024E-2,7.503410036E-1
6.870415879E0,-1.343860030E-1,-7.746220231E-1,3.616800159E-2,7.870241425E-1
6.875427572E0,-1.378989965E-1,-7.834969759E-1,2.532400005E-2,7.959428054E-1
6.880439264E0,-1.551319957E-1,-7.898020148E-1,8.117999882E-3,8.049341965E-1
6.885450942E0,-1.515280008E-1,-7.460529804E-1,1.718099974E-2,7.614794622E-1
6.890462634E0,-1.138139963E-1,-6.814010143E-1,5.410999991E-3,6.908619594E-1
6.895474332E0,-8.504000306E-2,-5.886570215E-1,-3.411999904E-3,5.947777172E-1
6.900485949E0,-5.552599952E-2,-4.989509881E-1,-3.252699971E-2,5.030837215E-1
6.905497649E0,-2.524800040E-2,-4.074409902E-1,-3.485700116E-2,4.097079845E-1
6.910509341E0,1.072300039E-2,-3.476670086E-1,-7.633800060E-2,3.561106878E-1
6.915521033E0,2.903600037E-2,-2.883400023E-1,-1.233310029E-1,3.149501270E-1
6.920532725E0,3.512300178E-2,-2.555040121E-1,-1.549630016E-1,3.008811349E-1
6.925544418E0,5.026400089E-2,-2.252299935E-1,-1.579370052E-1,2.796410509E-1
6.930556110E0,5.119099841E-2,-2.092390060E-1,-1.515550017E-1,2.633826086E-1
6.935567788E0,4.320700094E-2,-2.169300020E-1,-1.501310021E-1,2.673289892E-1
6.940579252E0,1.239600033E-2,-2.076559961E-1,-2.135549933E-1,2.981281749E-1
6.945590947E0,1.999799907E-2,-1.985590011E-1,-2.981550097E-1,3.587784926E-1
6.950602640E0,6.708800048E-2,-1.685239971E-1,-3.754960001E-1,4.170112510E-1
6.955614332E0,8.520500362E-2,-1.458359957E-1,-4.205229878E-1,4.531750364E-1
6.960626043E0,7.035499811E-2,-1.110579967E-1,-4.669309855E-1,4.850858167E-1
6.965637736E0,8.335500211E-2,-4.769200087E-2,-4.242880046E-1,4.350205676E-1
6.970649428E0,1.212330014E-1,-8.481999859E-3,-3.253569901E-1,3.473133397E-1
6.975661059E0,1.000709981E-1,-2.379699983E-2,-2.390239984E-1,2.602171663E-1
6.980672827E0,3.336000070E-2,-7.643000036E-2,-1.809480041E-1,1.992400934E-1
6.985684444E0,-3.360100091E-2,-1.304440051E-1,-7.354299724E-2,1.534706427E-1
6.990696129E0,-7.517699897E-2,-1.765590012E-1,1.452399977E-2,1.924463786E-1
6.995707822E0,-1.245310009E-1,-2.290800065E-1,7.948599756E-2,2.725869464E-1
7.000719514E0,-1.371379942E-1,-2.907780111E-1,1.173380017E-1,3.422380572E-1
7.005731201E0,-1.138980016E-1,-3.362059891E-1,-5.862100050E-2,3.597827728E-1
7.010742665E0,-3.960299864E-2,-2.911019921E-1,-1.008615971E0,1.050530791E0
7.015754365E0,-5.772799999E-2,-2.932009995E-1,-9.589499831E-1,1.004432386E0
7.020766057E0,-9.905000217E-3,-3.353059888E-1,-5.548089743E-1,6.483372680E-1
7.025777750E0,1.861619949E-1,-4.074969888E-1,-4.027799964E-1,6.024465202E-1
7.030789442E0,3.456499875E-1,-5.165920258E-1,-3.743819892E-1,7.256053395E-1
7.035801134E0,3.186469972E-1,-6.435840130E-1,-2.572160065E-1,7.628213189E-1
7.040812822E0,3.117890060E-1,-7.028419971E-1,-1.047580019E-1,7.759983867E-1
7.045824514E0,3.862670064E-1,-6.764810085E-1,4.964499921E-2,7.805724701E-1
7.050836136E0,4.142299891E-1,-6.287019849E-1,1.715880036E-1,7.722014715E-1
7.055847827E0,3.644270003E-1,-5.754659772E-1,2.809439898E-1,7.368158894E-1
7.060859519E0,3.388400078E-1,-5.147209764E-1,3.829250038E-1,7.255217384E-1
7.065871196E0,2.298659980E-1,-4.576680064E-1,4.317480028E-1,6.698542521E-1
7.070882889E0,1.325490028E-1,-4.068259895E-1,5.265830159E-1,6.785029819E-1
7.075894572E0,8.107200265E-2,-3.318749964E-1,5.690079927E-1,6.636895198E-1
7.080906264E0,1.599900052E-2,-2.662039995E-1,6.024950147E-1,6.588784259E-1
7.085917728E0,-2.744499967E-2,-2.124599963E-1,6.318719983E-1,6.671991459E-1
7.090929437E0,1.515700016E-2,-1.451410055E-1,7.270449996E-1,7.415457353E-1
7.095941130E0,1.021199971E-1,-8.864700049E-2,7.980509996E-1,8.094270706E-1
7.100952827E0,1.278360039E-1,-6.604100019E-2,8.942639828E-1,9.057657139E-1
7.105964519E0,1.382550001E-1,-5.555500090E-2,1.017549992E0,1.028401084E0
7.110976136E0,1.779769957E-1,-4.815699905E-2,1.064975977E0,1.080818550E0
7.115987903E0,2.599160075E-1,-5.646799877E-2,1.068665028E0,1.101267409E0
7.120999593E0,3.485360146E-1,-5.675100163E-2,9.672459960E-1,1.029690656E0
7.126011285E0,4.069859982E-1,-8.472599834E-2,7.474709749E-1,8.552946602E-1
7.131022978E0,2.469529957E-1,-2.720640004E-1,2.984339893E-1,4.733576326E-1
7.136034597E0,7.031700015E-2,-4.472430050E-1,-5.353019834E-1,7.010841600E-1
7.141046287E0,6.098200008E-2,-3.256520033E-1,-1.414139986E0,1.452432419E0
7.146057980E0,-1.252329946E-1,-2.673740089E-1,-1.926159978E0,1.948657082E0
7.151069658E0,-3.073039949E-1,-2.165080011E-1,-2.085700035E0,2.119305569E0
7.156081350E0,-3.577390015E-1,-1.382579952E-1,-2.012258053E0,2.048481129E0
7.161092814E0,-2.153359950E-1,1.288300008E-2,-1.909948945E0,1.922092749E0
