"Time (s)","Linear Acceleration x (m/s^2)","Linear Acceleration y (m/s^2)","Linear Acceleration z (m/s^2)","Absolute acceleration (m/s^2)"
4.203363500E-2,-9.093009830E-1,-3.759999946E-2,4.372859895E-1,1.009683651E0
4.704509800E-2,-9.498119950E-1,-3.554000054E-3,2.730349898E-1,9.882831388E-1
5.205670200E-2,-9.720460176E-1,2.238499932E-2,1.326750070E-1,9.813140201E-1
5.706816500E-2,-9.586060047E-1,5.444100127E-2,4.020100087E-2,9.609918914E-1
6.207979400E-2,-9.200360179E-1,6.489299983E-2,-4.494899884E-2,9.234163677E-1
6.709125700E-2,-8.667500019E-1,7.073199749E-2,-9.642399848E-2,8.749606670E-1
7.210286600E-2,-8.293570280E-1,6.502299756E-2,-1.261959970E-1,8.414193365E-1
7.711432900E-2,-7.980089784E-1,5.298500136E-2,-1.749300063E-1,8.186734679E-1
8.212594700E-2,-7.980089784E-1,1.399900019E-2,-1.755799949E-1,8.172163950E-1
8.713763900E-2,-8.006610274E-1,-1.670200005E-2,-9.470400214E-2,8.064154548E-1
9.214910200E-2,-7.989770174E-1,-2.338100038E-2,1.497100014E-2,7.994592400E-1
9.716050100E-2,-7.626370192E-1,-1.365000010E-2,5.291499943E-2,7.645924030E-1
1.021721150E-1,-7.346799970E-1,-2.034500055E-2,7.660199702E-2,7.389428144E-1
1.071838230E-1,-7.054979801E-1,-3.397000022E-3,3.332899883E-2,7.062929716E-1
1.121952860E-1,-7.030839920E-1,-9.835000150E-3,-5.291600153E-2,7.051410712E-1
1.172066710E-1,-6.801030040E-1,-1.819300093E-2,-1.342860013E-1,6.934722860E-1
1.222183800E-1,-6.674010158E-1,-3.545299917E-2,-1.820539981E-1,6.926937918E-1
1.272299960E-1,-6.414470077E-1,-4.781499878E-2,-1.508039981E-1,6.606681342E-1
1.322414540E-1,-6.117730141E-1,-5.561999977E-2,-7.168100029E-2,6.184642034E-1
1.372530680E-1,-5.830209851E-1,-7.568500191E-2,7.683999836E-2,5.929132095E-1
1.422645450E-1,-5.501480103E-1,-6.808800250E-2,1.965830028E-1,5.881697767E-1
1.472761590E-1,-5.387039781E-1,-5.677400157E-2,2.851560116E-1,6.121594679E-1
1.522876220E-1,-5.317410231E-1,-4.393900186E-2,3.066830039E-1,6.154133703E-1
1.572992360E-1,-5.199390054E-1,-1.996699907E-2,2.539879978E-1,5.790035867E-1
1.623106940E-1,-5.107049942E-1,-3.623000113E-3,1.629959941E-1,5.360973898E-1
1.673223080E-1,-5.134739876E-1,1.251699962E-2,7.201500237E-2,5.186505295E-1
1.723337570E-1,-5.140209794E-1,2.385099977E-2,1.455799956E-2,5.147799266E-1
1.773453700E-1,-5.308390260E-1,3.057900071E-2,-1.891699992E-2,5.320554479E-1
1.823568240E-1,-5.493869781E-1,4.217600077E-2,-4.995299876E-2,5.532632004E-1
1.873684370E-1,-5.392510295E-1,3.993500024E-2,-5.937699974E-2,5.439780374E-1
1.923799010E-1,-5.198559761E-1,4.742100090E-2,-6.876599789E-2,5.265242157E-1
1.973915090E-1,-5.031409860E-1,3.883000091E-2,-8.525399864E-2,5.117879102E-1
2.024029730E-1,-4.914259911E-1,4.020600021E-2,-8.972200006E-2,5.011647079E-1
2.074145860E-1,-4.803209901E-1,4.859000072E-2,-5.112000182E-2,4.854714165E-1
2.124260500E-1,-4.675720036E-1,4.048100114E-2,-2.924299985E-2,4.702312655E-1
2.174376630E-1,-4.464789927E-1,3.942000121E-2,1.175399963E-2,4.483699186E-1
2.224490980E-1,-4.264400005E-1,2.884900011E-2,6.949300319E-2,4.330272698E-1
2.274607110E-1,-3.955520093E-1,2.282699943E-2,1.176220030E-1,4.133006165E-1
2.324721950E-1,-3.585140109E-1,7.431999780E-3,1.274619997E-1,3.805707451E-1
2.374838850E-1,-3.316639960E-1,-1.236999966E-2,1.181780025E-1,3.523067746E-1
2.424952720E-1,-3.098919988E-1,-3.626200184E-2,8.263099939E-2,3.227628630E-1
2.475069470E-1,-2.885009944E-1,-5.016300082E-2,3.754099831E-2,2.952261455E-1
2.525185620E-1,-2.929419875E-1,-6.331100315E-2,-4.574399814E-2,3.031761939E-1
2.575300170E-1,-2.760930061E-1,-8.495900035E-2,-1.217660010E-1,3.134841922E-1
2.625416300E-1,-2.759610116E-1,-1.055769995E-1,-1.689729989E-1,3.403716456E-1
2.675530170E-1,-2.781789899E-1,-1.228400022E-1,-1.849830002E-1,3.559380942E-1
2.725644810E-1,-2.711859941E-1,-1.395719945E-1,-1.459150016E-1,3.381026069E-1
2.775760960E-1,-2.484239936E-1,-1.371340007E-1,-7.576599717E-2,2.937017212E-1
2.825877880E-1,-2.148890048E-1,-1.349889934E-1,1.493999967E-3,2.537745944E-1
2.875992280E-1,-1.801519990E-1,-1.239119992E-1,6.429900229E-2,2.279107018E-1
2.926108410E-1,-1.418000013E-1,-1.040740013E-1,9.588000178E-2,2.003287619E-1
2.976223050E-1,-1.163460016E-1,-8.044800162E-2,1.105889976E-1,1.795499915E-1
3.026339030E-1,-1.102569997E-1,-6.229500100E-2,9.412200004E-2,1.577853733E-1
3.076453670E-1,-9.960000217E-2,-3.078800067E-2,6.560000032E-2,1.231723242E-1
3.126569800E-1,-1.216790006E-1,-1.401699986E-2,1.554199960E-2,1.234658220E-1
3.176684440E-1,-1.336749941E-1,4.616000224E-3,-2.496100031E-2,1.360638198E-1
3.226800570E-1,-1.522929966E-1,6.622999907E-3,-4.867599905E-2,1.600199170E-1
3.276915110E-1,-1.471019983E-1,4.025000148E-3,-3.887899965E-2,1.522063571E-1
3.327031240E-1,-1.605899930E-1,8.561999537E-3,-2.905900031E-2,1.634223950E-1
3.377145880E-1,-1.712920070E-1,1.073300000E-2,4.712999798E-3,1.716926361E-1
3.427261920E-1,-1.978950053E-1,5.946999881E-3,2.180000022E-2,1.991809227E-1
3.477376550E-1,-2.190340012E-1,1.988399960E-2,4.128199816E-2,2.237754913E-1
3.527492640E-1,-2.256560028E-1,2.179400064E-2,3.923799843E-2,2.300765754E-1
3.577607270E-1,-2.461349964E-1,1.666400023E-2,4.441500083E-2,2.506647515E-1
3.627723500E-1,-2.382809967E-1,1.629900001E-2,3.043499961E-2,2.407691425E-1
3.677838130E-1,-2.285310030E-1,-4.379999882E-4,3.561099991E-2,2.312893307E-1
3.727955190E-1,-2.145870030E-1,-7.505999878E-3,3.119499981E-2,2.169724635E-1
3.778069050E-1,-1.965879947E-1,-1.924600080E-2,5.547099933E-2,2.051689060E-1
3.828186150E-1,-1.862560064E-1,-2.390499972E-2,7.732100040E-2,2.030795066E-1
3.878300010E-1,-1.551759988E-1,-2.857699990E-2,8.955799788E-2,1.814300706E-1
3.928416970E-1,-1.387699991E-1,-3.549100086E-2,8.982899785E-2,1.690738675E-1
3.978533120E-1,-1.132410020E-1,-3.525999933E-2,7.810699940E-2,1.420123073E-1
4.028647560E-1,-9.750100225E-2,-4.203400016E-2,6.878300011E-2,1.265085124E-1
4.078763690E-1,-8.665800095E-2,-5.307000130E-2,4.753499851E-2,1.121856062E-1
4.128878610E-1,-7.147700340E-2,-4.975999892E-2,3.822699934E-2,9.511216003E-2
4.178994750E-1,-5.665700138E-2,-4.876400158E-2,2.172599919E-2,7.784576222E-2
4.229109290E-1,-3.532600030E-2,-4.999899864E-2,2.434499934E-2,6.588251024E-2
4.279225430E-1,-3.779999912E-2,-4.173799977E-2,3.034000052E-3,5.639242604E-2
4.329340060E-1,-4.491199926E-2,-1.503000036E-2,-2.071600035E-2,5.169275828E-2
4.379456240E-1,-4.274199903E-2,1.572399959E-2,-3.019200079E-2,5.464137220E-2
4.429570870E-1,-5.476799980E-2,2.250399999E-2,-4.683899879E-2,7.549738820E-2
4.479687060E-1,-6.669700146E-2,2.439099923E-2,-2.998900041E-2,7.708924044E-2
4.529801690E-1,-6.466100365E-2,4.018799961E-2,-2.037799917E-2,7.881233124E-2
4.579917830E-1,-6.976500154E-2,3.919199854E-2,8.376000449E-3,8.045697964E-2
4.630032170E-1,-6.770800054E-2,3.354899958E-2,4.671100155E-2,8.883595204E-2
4.680149080E-1,-7.231300324E-2,2.580700070E-2,7.314000279E-2,1.060407079E-1
4.730262940E-1,-7.650599629E-2,1.819499955E-2,8.763899654E-2,1.177489668E-1
4.780379940E-1,-8.020000160E-2,8.516999893E-3,7.587800175E-2,1.107341442E-1
4.830493810E-1,-8.999399841E-2,4.087999929E-3,-2.778999973E-3,9.012965291E-2
4.880610710E-1,-1.278969944E-1,-1.085999981E-2,-2.079489976E-1,2.443734158E-1
4.930726870E-1,-1.609320045E-1,-2.878399938E-2,-4.056240022E-1,4.373310644E-1
4.980841500E-1,-1.766680032E-1,-4.563900083E-2,-4.380500019E-1,4.745337774E-1
5.030957680E-1,-1.630980074E-1,-2.742500044E-2,-3.127169907E-1,3.537584020E-1
5.081071540E-1,-1.108309999E-1,-3.676000051E-3,-7.773300260E-2,1.354232004E-1
5.131188450E-1,-4.004300013E-2,4.586499929E-2,2.595399916E-1,2.665859097E-1
5.181303130E-1,6.141100079E-2,6.001099944E-2,5.029860139E-1,5.102622475E-1
5.231419270E-1,1.362729967E-1,6.796900183E-2,5.355690122E-1,5.567982414E-1
5.281533900E-1,1.703329980E-1,5.635200068E-2,4.221499860E-1,4.586932405E-1
5.331650040E-1,1.537429988E-1,2.848099917E-2,2.538709939E-1,2.981586130E-1
5.381764670E-1,1.181870028E-1,1.545799989E-2,6.665500253E-2,1.365650276E-1
5.431880720E-1,6.402400136E-2,-8.484000340E-3,-7.482299954E-2,9.884094431E-2
5.481995350E-1,1.693000086E-2,-2.894099988E-2,-1.538529992E-1,1.574641285E-1
5.532111250E-1,-1.453800034E-2,-4.849499837E-2,-1.465840042E-1,1.550805874E-1
5.582225880E-1,-4.974099994E-2,-4.649800062E-2,-6.506799906E-2,9.418107899E-2
5.632342100E-1,-5.837500095E-2,-2.833599970E-2,3.555800021E-2,7.399284421E-2
5.682459030E-1,-6.456399709E-2,-8.311999962E-3,1.002520025E-1,1.195326862E-1
5.732573520E-1,-6.843400002E-2,-3.250000009E-4,1.314350069E-1,1.481839364E-1
5.782689660E-1,-7.246399671E-2,2.851999924E-2,1.242659986E-1,1.466508083E-1
5.832803320E-1,-7.898099720E-2,4.968599975E-2,1.170509979E-1,1.496917920E-1
5.882917930E-1,-7.164900005E-2,7.048399746E-2,8.105900139E-2,1.291206212E-1
5.933035030E-1,-7.879800349E-2,8.848100156E-2,7.134900242E-2,1.383065188E-1
5.983151190E-1,-7.181199640E-2,9.913899750E-2,7.836399972E-2,1.453493038E-1
6.033265680E-1,-6.268099695E-2,1.004030034E-1,9.255799651E-2,1.502552934E-1
6.083381820E-1,-6.995200366E-2,1.179429963E-1,1.210960001E-1,1.829428174E-1
6.133496450E-1,-5.127499998E-2,1.047210023E-1,1.472450048E-1,1.878209397E-1
6.183612590E-1,-4.917100072E-2,8.503200114E-2,1.495369971E-1,1.789121070E-1
6.233727220E-1,-4.459000006E-2,7.304300368E-2,1.327349991E-1,1.579307711E-1
6.283843400E-1,-4.472700134E-2,6.616000086E-2,1.063920036E-1,1.330297290E-1
6.333958040E-1,-4.713600129E-2,4.345300049E-2,5.620399863E-2,8.525758224E-2
6.384074260E-1,-5.435999855E-2,1.463000011E-2,3.002900071E-2,6.380272118E-2
6.434188900E-1,-5.933300033E-2,-1.087599993E-2,-3.258999903E-3,6.040954712E-2
6.484305230E-1,-6.676699966E-2,-4.484099895E-2,-7.745999843E-3,8.079943034E-2
6.534422160E-1,-5.566700175E-2,-7.548700273E-2,-2.349999995E-4,9.379316548E-2
6.584536160E-1,-4.971799999E-2,-1.007689983E-1,2.644200064E-2,1.154359127E-1
6.634653070E-1,-4.397900030E-2,-1.090959981E-1,4.355400056E-2,1.254314165E-1
6.684766930E-1,-3.810599819E-2,-1.336250007E-1,7.028999925E-2,1.557189517E-1
6.734883840E-1,-4.367600009E-2,-1.343590021E-1,8.030500263E-2,1.625079317E-1
6.784998470E-1,-4.173000157E-2,-1.257610023E-1,7.118000090E-2,1.504121513E-1
6.835114370E-1,-3.724500164E-2,-1.128349975E-1,5.245599896E-2,1.298867146E-1
6.885229000E-1,-3.507399932E-2,-1.048889980E-1,1.458199974E-2,1.115550180E-1
6.935345130E-1,-3.307000175E-2,-1.017709970E-1,-2.330599912E-2,1.095177175E-1
6.985459870E-1,-1.744600013E-2,-9.411299974E-2,-1.819200069E-2,9.742981335E-2
7.035576000E-1,1.125700027E-2,-9.139599651E-2,-1.078500040E-2,9.271604212E-2
7.085690730E-1,2.724100091E-2,-9.361500293E-2,2.527300082E-2,1.007202337E-1
7.135806860E-1,4.732200131E-2,-7.522600144E-2,9.231299907E-2,1.281405982E-1
7.185921550E-1,7.862299681E-2,-4.839799926E-2,1.448509991E-1,1.717723898E-1
7.236038450E-1,9.318400174E-2,-3.201000020E-2,1.973160058E-1,2.205481908E-1
7.286152320E-1,1.007329971E-1,-1.875500008E-2,2.138350010E-1,2.371166261E-1
7.336268590E-1,1.038829982E-1,-6.039999891E-3,1.800860018E-1,2.079882856E-1
7.386383230E-1,9.562099725E-2,-7.440000190E-4,1.415670067E-1,1.708366063E-1
7.436499360E-1,9.219700098E-2,1.599599980E-2,9.822200239E-2,1.356603138E-1
7.486614000E-1,7.257699966E-2,2.067100070E-2,5.490599945E-2,9.332405867E-2
7.536730130E-1,5.578900129E-2,2.070100047E-2,-2.722000005E-3,5.956805661E-2
7.586847050E-1,3.946800157E-2,2.551800013E-2,-1.485500019E-2,4.929059250E-2
7.636961690E-1,2.815400064E-2,2.107699960E-2,-1.259000041E-2,3.735499665E-2
7.687077820E-1,7.685000077E-3,1.215699967E-2,-6.990000256E-4,1.439932180E-2
7.737192460E-1,6.248000078E-3,1.502100006E-2,1.356399991E-2,2.118136070E-2
7.787308740E-1,4.521999974E-3,8.497999981E-3,-3.285000101E-3,1.017131816E-2
7.837423380E-1,-1.591300033E-2,1.377500035E-2,-2.729699947E-2,3.446883221E-2
7.887539510E-1,-3.143800050E-2,1.632199995E-2,5.156699941E-2,6.256125786E-2
7.937654190E-1,-3.972899914E-2,2.540699951E-2,1.758480072E-1,1.820616122E-1
7.987770320E-1,-3.125499934E-2,2.928199992E-2,2.546319962E-1,2.582087604E-1
8.037884870E-1,-1.109699998E-2,2.595400065E-2,2.807520032E-1,2.821673986E-1
8.088001000E-1,-5.479999818E-4,2.508600056E-2,2.638030052E-1,2.649936476E-1
8.138115640E-1,-6.176999770E-3,2.216400020E-2,1.272780001E-1,1.293409740E-1
8.188231960E-1,-2.101299912E-2,1.505700033E-2,-6.779999938E-3,2.672504051E-2
8.238346600E-1,-3.097400069E-2,6.262000185E-3,-1.575260013E-1,1.606643783E-1
8.288462730E-1,-3.412900120E-2,-4.364999942E-3,-2.460359931E-1,2.484301750E-1
8.338579650E-1,-5.633199960E-2,-2.613800019E-2,-2.507210076E-1,2.582973342E-1
8.388693520E-1,-5.075100064E-2,-4.758200049E-2,-1.669079959E-1,1.808258553E-1
8.438808140E-1,-2.729599923E-2,-4.093499854E-2,-9.050999768E-3,5.002665566E-2
8.488924370E-1,6.845999975E-3,-2.346099913E-2,1.605899930E-1,1.624390102E-1
8.539039010E-1,3.081100062E-2,-1.939999929E-4,2.941870093E-1,2.957961323E-1
8.589155910E-1,5.671799928E-2,3.131600097E-2,3.582549989E-1,3.640662956E-1
8.639269620E-1,5.653800070E-2,5.243200064E-2,3.361330032E-1,3.448638225E-1
8.689386530E-1,5.645399913E-2,7.298599929E-2,2.517620027E-1,2.681382407E-1
8.739502680E-1,4.234899953E-2,6.732799858E-2,1.650310010E-1,1.831986038E-1
8.789617370E-1,2.175300010E-2,6.892000139E-2,1.046800017E-1,1.272048048E-1
8.839733500E-1,8.825999685E-3,6.591399759E-2,8.745100349E-2,1.098646047E-1
8.889848280E-1,-3.233999945E-3,5.846900120E-2,8.705999702E-2,1.049215228E-1
8.939965180E-1,-7.586999796E-3,4.662499949E-2,1.034869999E-1,1.137585702E-1
8.990081350E-1,-2.539299987E-2,3.983400017E-2,1.343560070E-1,1.424187088E-1
9.040195200E-1,-2.601299994E-2,4.027500004E-2,1.365450025E-1,1.447179653E-1
9.090312100E-1,-2.863500081E-2,2.683500014E-2,1.340119988E-1,1.396398808E-1
9.140425970E-1,-3.336299956E-2,2.096799947E-2,1.219569966E-1,1.281649553E-1
9.190540400E-1,-4.270499945E-2,1.773400046E-2,1.147200018E-1,1.236886841E-1
9.240657300E-1,-3.114200011E-2,3.196999896E-3,1.003110036E-1,1.050825505E-1
9.290773400E-1,-3.638799861E-2,7.761999965E-3,8.589600027E-2,9.360800152E-2
9.340888040E-1,-3.937000036E-2,8.980000275E-4,4.758299887E-2,6.176524196E-2
9.391004120E-1,-4.720199853E-2,-3.378999885E-3,1.885199919E-2,5.093961306E-2
9.441118760E-1,-5.259200186E-2,-1.901699975E-2,-9.831000119E-3,5.678215831E-2
9.491234890E-1,-5.571699888E-2,-2.018800005E-2,-1.697899960E-2,6.164597097E-2
9.541349390E-1,-6.355600059E-2,-3.512600064E-2,-2.168500051E-2,7.578548924E-2
9.591465520E-1,-5.950200185E-2,-3.553399816E-2,-1.442100015E-2,7.078925409E-2
9.641580160E-1,-6.718400121E-2,-5.213499814E-2,-9.490000084E-3,8.556756483E-2
9.691696340E-1,-6.994000077E-2,-5.409599841E-2,-2.845999971E-2,9.288677158E-2
9.741810980E-1,-7.259900123E-2,-5.819299817E-2,-3.304700181E-2,9.873775541E-2
9.791927110E-1,-7.516299933E-2,-6.918299943E-2,-3.760499880E-2,1.088572451E-1
9.842041700E-1,-5.674400181E-2,-6.823000312E-2,-1.588200033E-2,9.015238766E-2
9.892157830E-1,-2.498899959E-2,-6.746599823E-2,2.968399972E-2,7.782834225E-2
9.942274620E-1,-3.623000113E-3,-6.683599949E-2,7.757499814E-2,1.024600278E-1
9.992389260E-1,2.404900081E-2,-5.720999837E-2,1.205779985E-1,1.356111797E-1
1.004250552E0,4.621199891E-2,-2.953200042E-2,1.490920037E-1,1.588587846E-1
1.009262016E0,7.018200308E-2,-2.372499928E-2,1.392550021E-1,1.577350461E-1
1.014273615E0,8.668500185E-2,-2.744900063E-2,1.198310032E-1,1.504234241E-1
1.019285079E0,9.601499885E-2,-2.649299987E-2,9.800600260E-2,1.397352339E-1
1.024296692E0,1.192760020E-1,-3.484499827E-2,7.138700038E-2,1.433075099E-1
1.029308156E0,1.166720018E-1,-4.992099851E-2,2.568800002E-2,1.294771618E-1
1.034319760E0,1.120610014E-1,-4.839700088E-2,2.068700083E-2,1.238058550E-1
1.039331224E0,9.613800049E-2,-4.936899990E-2,2.768800035E-2,1.115636081E-1
1.044342837E0,7.630400360E-2,-5.260400102E-2,1.561400015E-2,9.398552489E-2
1.049354529E0,6.441099942E-2,-6.273700297E-2,2.993699908E-2,9.476778093E-2
1.054365916E0,4.151099920E-2,-4.929900169E-2,2.994200028E-2,7.106390085E-2
1.059377382E0,3.360100091E-2,-4.302699864E-2,2.042100020E-2,5.828693784E-2
1.064388996E0,2.613399923E-2,-4.136399925E-2,3.765000030E-3,4.907281910E-2
1.069400459E0,2.125800028E-2,-2.559700049E-2,-1.768100075E-2,3.767926218E-2
1.074412144E0,1.650200039E-2,-2.164299972E-2,-3.192900121E-2,4.195469667E-2
1.079423530E0,1.634100080E-2,-1.293400023E-2,-5.576200038E-2,5.952913031E-2
1.084435216E0,2.744800039E-2,-1.118400041E-2,-6.527099758E-2,7.168526847E-2
1.089446831E0,2.628099918E-2,-9.220999666E-3,-7.717899978E-2,8.205069019E-2
1.094458523E0,2.009000070E-2,-1.178099960E-2,-7.712200284E-2,8.056179865E-2
1.099469987E0,4.399000201E-3,-7.180999964E-3,-5.313200131E-2,5.379523702E-2
1.104481372E0,-1.830999972E-3,-4.970000125E-3,-4.330000083E-4,5.314221594E-3
1.109492994E0,-3.197999904E-3,6.484999787E-3,4.267499968E-2,4.328323028E-2
1.114504458E0,-1.607199945E-2,-1.037999988E-3,7.147099823E-2,7.326315717E-2
1.119516148E0,-7.538000122E-3,3.272000002E-3,9.785500169E-2,9.819943373E-2
1.124527764E0,-6.051999982E-3,1.661299914E-2,1.026759967E-1,1.041872293E-1
1.129539227E0,1.178700011E-2,2.250099927E-2,9.069799632E-2,9.418787011E-2
1.134550840E0,1.995600015E-2,3.277099878E-2,7.629200071E-2,8.539701210E-2
1.139562227E0,1.411799993E-2,2.883899957E-2,2.602900006E-2,4.133418273E-2
1.144573917E0,8.541000076E-3,3.665199876E-2,-1.465800032E-2,4.038780346E-2
1.149585386E0,7.833999582E-3,2.118499950E-2,-6.965100020E-2,7.322183815E-2
1.154596999E0,1.158399973E-2,2.483800054E-2,-1.127049997E-1,1.159893628E-1
1.159608473E0,1.714099944E-2,1.220900007E-2,-1.198740005E-1,1.217072288E-1
1.164620086E0,3.361200169E-2,-7.077999879E-3,-1.055470034E-1,1.109956516E-1
1.169631559E0,3.281600028E-2,-3.052300029E-2,-5.771199986E-2,7.306995517E-2
1.174643172E0,2.261400037E-2,-4.875800014E-2,6.912999786E-3,5.418971448E-2
1.179654646E0,1.976899989E-2,-4.792200029E-2,5.240400136E-2,7.371235193E-2
1.184666336E0,8.108999580E-3,-5.638400093E-2,9.796799719E-2,1.133253719E-1
1.189677707E0,9.022000246E-3,-4.838399962E-2,1.172360033E-1,1.271482928E-1
1.194689398E0,5.929999985E-3,-4.068100080E-2,1.437159926E-1,1.494804176E-1
1.199701013E0,1.766400039E-2,-4.239600152E-2,1.008469984E-1,1.108131533E-1
1.204712487E0,1.191100013E-2,-3.902599961E-2,-1.845099963E-2,4.478102228E-2
1.209724100E0,-1.376000000E-3,-4.213999957E-2,-1.662649959E-1,1.715276124E-1
1.214735564E0,-3.214399889E-2,-5.184299871E-2,-2.540880144E-1,2.613075816E-1
1.219746938E0,-4.621800035E-2,-2.676199935E-2,-1.984120011E-1,2.054741598E-1
1.224758629E0,-1.046200003E-2,2.042699978E-2,-1.023939997E-1,1.049344888E-1
1.229770244E0,4.976499826E-2,5.422399938E-2,5.542000011E-2,9.213128444E-2
1.234781708E0,1.038900018E-1,8.661899716E-2,1.697849929E-1,2.170781586E-1
1.239793398E0,1.620530039E-1,9.225299954E-2,1.833830029E-1,2.615360735E-1
1.244804775E0,1.716150045E-1,8.134199679E-2,1.203759983E-1,2.248524209E-1
1.249816388E0,1.692900062E-1,4.960799962E-2,1.028949991E-1,2.042239963E-1
1.254827861E0,1.466940045E-1,3.029200062E-2,8.314900100E-2,1.713198548E-1
1.259839475E0,1.025469974E-1,2.154000103E-3,5.166700110E-2,1.148477487E-1
1.264850943E0,4.925199971E-2,-2.518700063E-2,1.326300018E-2,5.688630459E-2
1.269862557E0,3.160000080E-3,-5.407400057E-2,3.807999892E-3,5.429994476E-2
1.274874020E0,-1.529899985E-2,-6.596799940E-2,5.667899922E-2,8.830824023E-2
1.279885648E0,-1.172600035E-2,-5.192700028E-2,6.409599632E-2,8.331992071E-2
1.284897111E0,-1.484300010E-2,-3.351600096E-2,8.109200001E-2,8.899185040E-2
1.289909032E0,-1.541499980E-2,-1.297700033E-2,5.262000114E-2,5.634615582E-2
1.294920390E0,-2.316300012E-2,1.199499983E-2,-2.195999958E-3,2.617684113E-2
1.299931852E0,-3.129500151E-2,3.902700171E-2,-6.902600080E-2,8.524712762E-2
1.304943457E0,-5.626900122E-2,4.016600177E-2,-1.166900024E-1,1.356320937E-1
1.309954921E0,-6.044299901E-2,4.631000012E-2,-1.380710006E-1,1.576755322E-1
1.314966534E0,-5.356299877E-2,3.406200185E-2,-1.068229973E-1,1.242592756E-1
1.319977987E0,-4.741799831E-2,3.852599859E-2,-3.495600075E-2,7.038921167E-2
1.324989678E0,-3.244299814E-2,4.762800038E-2,5.598900095E-2,8.034763702E-2
1.330001069E0,-1.315500028E-2,5.648100004E-2,1.109879985E-1,1.252257690E-1
1.335012683E0,-1.184000052E-3,5.107500032E-2,1.468400061E-1,1.554736148E-1
1.340024375E0,1.077499986E-2,4.106299952E-2,1.515969932E-1,1.574290917E-1
1.345035839E0,1.100500021E-2,3.590999916E-2,1.276589930E-1,1.330693675E-1
1.350047452E0,1.359499991E-2,4.016600177E-2,7.978100330E-2,9.035009799E-2
1.355058901E0,-2.497999929E-3,3.041999973E-2,1.520999987E-2,3.410220643E-2
1.360070514E0,-1.148200035E-2,2.097900026E-2,5.692000035E-3,2.458360527E-2
1.365081978E0,-2.041999996E-2,1.183199976E-2,-1.409000019E-3,2.364229045E-2
1.370093591E0,-2.226500027E-2,-1.325799990E-2,8.286000229E-3,2.720592947E-2
1.375105055E0,-3.084599972E-2,-3.059599921E-2,1.326899976E-2,4.542749411E-2
1.380116668E0,-2.964499965E-2,-4.504799843E-2,1.590899937E-2,5.622494489E-2
1.385128131E0,-2.809599973E-2,-7.285600156E-2,4.286999814E-3,7.820332813E-2
1.390139769E0,-1.481600013E-2,-8.817800134E-2,9.434999898E-3,8.991047216E-2
1.395151232E0,-8.626000024E-3,-1.053970009E-1,2.180499956E-2,1.079740417E-1
1.400162846E0,2.074399963E-2,-1.221840009E-1,3.414800018E-2,1.285508830E-1
1.405174309E0,4.449399933E-2,-1.271339953E-1,2.488600090E-2,1.369747487E-1
1.410186000E0,5.116700009E-2,-1.181740016E-1,2.274700068E-2,1.307691959E-1
1.415197386E0,6.228800118E-2,-1.166160032E-1,2.056800015E-2,1.337988413E-1
1.420208986E0,6.385199726E-2,-9.683900326E-2,4.943500087E-2,1.260900052E-1
1.425220678E0,6.092499942E-2,-9.400799870E-2,6.873799860E-2,1.314316241E-1
1.430232137E0,6.061699986E-2,-7.748199999E-2,8.322799951E-2,1.288595394E-1
1.435243750E0,4.896799847E-2,-6.148700044E-2,7.379899919E-2,1.078184046E-1
1.440255228E0,3.555800021E-2,-3.890600055E-2,3.087300062E-2,6.108347097E-2
1.445266841E0,2.956799977E-2,-1.687899977E-2,4.676999990E-3,3.436628540E-2
1.450278280E0,3.297099844E-2,-1.628500037E-2,-1.913000084E-2,4.145171778E-2
1.455289894E0,2.905900031E-2,7.040000055E-4,-4.058200121E-2,4.991813235E-2
1.460301357E0,2.264500037E-2,3.381999908E-3,-6.921699643E-2,7.290560033E-2
1.465312981E0,1.606200077E-2,1.400999958E-3,-6.914199889E-2,7.099694838E-2
1.470324673E0,2.321599983E-2,1.896000002E-3,-5.714400113E-2,6.170911058E-2
1.475336060E0,2.052599937E-2,1.149300020E-2,-3.562900051E-2,4.269462942E-2
1.480347745E0,8.299999870E-3,8.984000422E-3,-2.129900083E-2,2.456114203E-2
1.485359209E0,1.469899993E-2,2.510700002E-2,-1.422599982E-2,3.238519909E-2
1.490370822E0,-1.860000048E-4,1.976799965E-2,-3.105700016E-2,3.681501956E-2
1.495382315E0,-7.868999615E-3,3.780800104E-2,-6.706900150E-2,7.739261631E-2
1.500393928E0,-1.999600045E-2,4.171400145E-2,-1.485040039E-1,1.555420751E-1
1.505405401E0,-2.730000019E-2,3.633299842E-2,-1.461630017E-1,1.530653450E-1
1.510417014E0,-1.848700084E-2,2.644100040E-2,-4.813399911E-2,5.794633356E-2
1.515428501E0,1.445999951E-3,1.919100061E-2,5.223799869E-2,5.567040442E-2
1.520440192E0,2.319700085E-2,3.076400049E-2,1.238309965E-1,1.296867004E-1
1.525451809E0,3.263299912E-2,2.347199991E-2,1.547390074E-1,1.598749756E-1
1.530463194E0,4.641399905E-2,1.417199988E-2,1.066749990E-1,1.171949670E-1
1.535474655E0,4.114200175E-2,5.249000154E-3,-1.175999991E-3,4.149215934E-2
1.540486269E0,5.682199821E-2,-1.020700019E-2,-1.281690001E-1,1.405710316E-1
1.545497956E0,5.820899829E-2,-2.049100026E-2,-2.072660029E-1,2.162576346E-1
1.550509420E0,5.940400064E-2,-4.225600138E-2,-1.978069991E-1,2.108127459E-1
1.555521033E0,6.717099994E-2,-6.162599847E-2,-9.506700188E-2,1.317096874E-1
1.560532512E0,6.743899733E-2,-6.964900345E-2,1.128949970E-1,1.488095507E-1
1.565544125E0,7.729200274E-2,-4.342100024E-2,2.992050052E-1,3.120626092E-1
1.570555589E0,7.804600149E-2,-1.412499975E-2,4.351769984E-1,4.423456950E-1
1.575567202E0,1.027619988E-1,2.786399983E-2,4.633519948E-1,4.754277042E-1
1.580578655E0,1.067479998E-1,5.917299911E-2,3.981829882E-1,4.164688120E-1
1.585590269E0,9.743800014E-2,6.888999790E-2,2.373739928E-1,2.656810271E-1
1.590601933E0,6.577900052E-2,5.564299971E-2,7.196299732E-2,1.122572639E-1
1.595613397E0,2.391299978E-2,5.727599934E-2,-6.456899643E-2,8.956297761E-2
1.600624781E0,-1.630000025E-2,3.868800029E-2,-1.578149945E-1,1.633034716E-1
1.605636370E0,-5.957600102E-2,1.676199958E-2,-2.293000072E-1,2.375052796E-1
1.610648062E0,-8.503100276E-2,3.169999924E-3,-2.814790010E-1,2.940590899E-1
1.615659526E0,-8.193899691E-2,-2.533999970E-3,-2.977240086E-1,3.088041542E-1
1.620671168E0,-6.106400117E-2,-1.247300021E-2,-2.398470044E-1,2.478123756E-1
1.625682632E0,-3.738399968E-2,-1.994000003E-2,-1.414290071E-1,1.476391922E-1
1.630694245E0,-2.503599972E-2,-2.067299932E-2,-9.673000313E-3,3.387832814E-2
1.635705714E0,-2.339199930E-2,-1.038600039E-2,1.099670008E-1,1.129061376E-1
1.640717404E0,5.547999870E-3,-5.499999970E-3,2.151010036E-1,2.152428212E-1
1.645729021E0,1.751900092E-2,-3.547000000E-3,2.675389946E-1,2.681354326E-1
1.650740469E0,3.438999876E-2,2.134300023E-2,2.672699988E-1,2.703173097E-1
1.655752082E0,4.936299846E-2,1.759600081E-2,1.952549964E-1,2.021653741E-1
1.660763570E0,3.924399987E-2,1.645999961E-2,7.548999786E-2,8.665888812E-2
1.665774954E0,1.821999997E-2,1.795100048E-2,-2.982399985E-2,3.928966511E-2
1.670786568E0,1.397200022E-2,8.097000420E-3,-9.201999754E-2,9.342621769E-2
1.675798031E0,2.682999941E-3,8.146000095E-3,-1.326459944E-1,1.329229688E-1
1.680809645E0,-1.557699963E-2,1.318600029E-2,-1.325639933E-1,1.341257837E-1
1.685821337E0,-3.104100004E-2,1.156200003E-2,-1.228429973E-1,1.272305998E-1
1.690833034E0,-2.996700071E-2,7.915000431E-3,-7.243199646E-2,7.878491274E-2
1.695844498E0,-3.621499985E-2,-1.663300022E-2,1.390600018E-2,4.220852701E-2
1.700855873E0,-2.853799984E-2,-3.370799869E-2,9.305600077E-2,1.030051741E-1
1.705867486E0,-3.221200034E-2,-3.405899927E-2,8.610399812E-2,9.803839498E-2
1.710878950E0,-5.284300074E-2,-3.184499964E-2,-4.749400169E-2,7.785991861E-2
1.715890549E0,-7.350800186E-2,-4.313600063E-2,-2.334980071E-1,2.485668123E-1
1.720902241E0,-8.382000029E-2,-3.989399970E-2,-3.954969943E-1,4.062452414E-1
1.725913690E0,-4.617099836E-2,-3.226700053E-2,-4.021550119E-1,4.060807481E-1
1.730925074E0,1.443799958E-2,7.453999948E-3,-3.206329942E-1,3.210444438E-1
1.735936765E0,7.950499654E-2,3.709999844E-2,-2.154240012E-1,2.326047176E-1
1.740948375E0,8.455400169E-2,2.466399968E-2,-1.053709984E-1,1.373344071E-1
1.745959839E0,9.806399792E-2,-1.318000024E-3,5.490700155E-2,1.123969022E-1
1.750971452E0,1.122900024E-1,-4.575600103E-2,2.151139975E-1,2.469345828E-1
1.755982902E0,1.227750033E-1,-7.358799875E-2,2.699269950E-1,3.055314675E-1
1.760994515E0,1.185109988E-1,-8.075100183E-2,2.408989966E-1,2.803531838E-1
1.766005964E0,1.006380022E-1,-7.687100023E-2,2.214329988E-1,2.550876930E-1
1.771017577E0,7.237999886E-2,-7.609599829E-2,2.259619981E-1,2.491752190E-1
1.776029279E0,6.483899802E-2,-8.949699998E-2,1.660110056E-1,1.994328525E-1
1.781040743E0,6.114400178E-2,-7.894600183E-2,5.113099888E-2,1.121848439E-1
1.786052356E0,3.536000103E-2,-6.360699981E-2,-6.600800157E-2,9.825088482E-2
1.791063820E0,2.230400033E-2,-4.146799818E-2,-1.161210015E-1,1.253042310E-1
1.796075433E0,1.412799954E-2,-1.503599994E-2,-1.519050002E-1,1.532997415E-1
1.801086911E0,7.991000079E-3,2.487099916E-2,-1.518869996E-1,1.541171091E-1
1.806098524E0,-9.790000040E-4,5.007399991E-2,-1.303920001E-1,1.396797680E-1
1.811110003E0,1.129999990E-3,7.027599961E-2,-9.461700171E-2,1.178658985E-1
1.816121616E0,-9.208999574E-3,9.507499635E-2,-8.521500230E-2,1.280064734E-1
1.821133080E0,-2.226400003E-2,9.391000122E-2,-6.384400278E-2,1.157187570E-1
1.826144688E0,-3.308099881E-2,1.000389978E-1,-3.529800102E-2,1.111220160E-1
1.831156152E0,-4.603099823E-2,9.913399816E-2,-1.934999949E-3,1.093167261E-1
1.836167851E0,-3.993799910E-2,9.119500220E-2,4.339500144E-2,1.086033993E-1
1.841179468E0,-3.370999917E-2,7.189399749E-2,6.485100091E-2,1.025220134E-1
1.846190834E0,-3.184299916E-2,6.458500028E-2,9.830400348E-2,1.218559640E-1
1.851202524E0,-2.014799975E-2,5.039099976E-2,1.030820012E-1,1.164950373E-1
1.856213887E0,-8.407999761E-3,4.813199863E-2,8.872000128E-2,1.012848576E-1
1.861225348E0,-1.307999948E-3,2.967399918E-2,6.483499706E-2,7.131503302E-2
1.866236962E0,8.121999912E-3,1.407300029E-2,4.337500036E-2,4.631853706E-2
1.871248654E0,1.282200031E-2,3.709000070E-3,9.986000136E-3,1.666975021E-2
1.876260118E0,1.980200037E-2,-1.765600033E-2,-4.008699954E-2,4.807100060E-2
1.881271731E0,2.671400085E-2,-3.798500076E-2,-1.068390012E-1,1.164949368E-1
1.886283190E0,2.900299989E-2,-4.780799896E-2,-1.854709983E-1,1.937169842E-1
1.891294880E0,3.362299874E-2,-5.667899922E-2,-2.520689964E-1,2.605413479E-1
1.896306497E0,3.106399998E-2,-6.456299871E-2,-2.970519960E-1,3.055703540E-1
1.901317983E0,3.750700131E-2,-8.570300043E-2,-2.965210080E-1,3.109284285E-1
1.906329368E0,3.184799850E-2,-9.643799812E-2,-2.935360074E-1,3.106090310E-1
1.911340981E0,4.459099844E-2,-9.738200158E-2,-2.498989999E-1,2.718843900E-1
1.916352687E0,4.730800167E-2,-8.908099681E-2,-1.608480066E-1,1.898566624E-1
1.921364151E0,6.814999878E-2,-8.365800232E-2,-4.318600148E-2,1.162244140E-1
1.926375764E0,6.727699935E-2,-8.122699708E-2,6.006500125E-2,1.213747258E-1
1.931387219E0,7.782900333E-2,-6.327699870E-2,1.368599981E-1,1.696820303E-1
1.936398832E0,7.406400144E-2,-6.518799812E-2,2.016399950E-1,2.244852756E-1
1.941410325E0,7.515499741E-2,-5.390900001E-2,2.400099933E-1,2.572144063E-1
1.946421938E0,5.347400159E-2,-3.644200042E-2,2.305220068E-1,2.394324202E-1
1.951433406E0,4.926199839E-2,-1.776500046E-2,2.090210021E-1,2.154811338E-1
1.956445019E0,3.635799885E-2,2.454000060E-3,1.803320050E-1,1.839770590E-1
1.961456483E0,2.215600014E-2,1.958600059E-2,1.253380030E-1,1.287793259E-1
1.966468096E0,1.799900085E-2,4.312000051E-2,7.509600371E-2,8.844607537E-2
1.971479788E0,4.685999826E-3,4.739499837E-2,4.162500054E-2,6.325255042E-2
1.976491252E0,-3.723999951E-3,5.628399923E-2,-3.815999953E-3,5.653599385E-2
1.981502860E0,-1.218300033E-2,7.895299792E-2,-3.016600013E-2,8.539314341E-2
1.986514247E0,-1.386400033E-2,8.722899854E-2,-4.697600007E-2,1.000392587E-1
1.991525937E0,-1.822699979E-2,7.918799669E-2,-7.573399693E-2,1.110792538E-1
1.996537406E0,-1.355199981E-2,8.339499682E-2,-9.493199736E-2,1.270844850E-1
2.001549019E0,-4.757999908E-3,6.905999780E-2,-5.669799820E-2,8.947952201E-2
2.006560469E0,-1.497799996E-2,6.916300207E-2,3.419499844E-2,7.859490605E-2
2.011572082E0,-3.857000032E-3,6.705000252E-2,1.155190021E-1,1.336234228E-1
2.016583551E0,-4.346999805E-3,5.594699830E-2,1.370929927E-1,1.481332227E-1
2.021595241E0,-1.375600044E-2,4.778600112E-2,1.108999997E-1,1.215382219E-1
2.026606858E0,-1.545500010E-2,3.094599955E-2,3.460000036E-3,3.476324951E-2
2.031618310E0,-3.063200042E-2,3.564999904E-3,-1.516560018E-1,1.547597220E-1
2.036629923E0,-3.378299996E-2,-1.583999954E-2,-2.181629986E-1,2.213307268E-1
2.041641387E0,-2.094399929E-2,-4.171200097E-2,-2.009059936E-1,2.062565402E-1
2.046653019E0,1.676099934E-2,-4.633799940E-2,-1.072010025E-1,1.179838812E-1
2.051664483E0,4.630099982E-2,-4.682800174E-2,4.620499909E-2,8.044592141E-2
2.056676096E0,8.428999782E-2,-3.644400090E-2,2.233700007E-1,2.415100953E-1
2.061687579E0,1.216230020E-1,-1.074799988E-2,3.453319967E-1,3.662811243E-1
2.066699192E0,1.396950036E-1,1.606800035E-2,3.906019926E-1,4.151418930E-1
2.071710646E0,1.459619999E-1,2.775800042E-2,3.640300035E-1,3.931834883E-1
2.076722259E0,1.288850009E-1,3.895299882E-2,3.063490093E-1,3.346317305E-1
2.081733723E0,1.121859998E-1,4.035700113E-2,2.271399945E-1,2.565286791E-1
2.086745336E0,7.947000116E-2,3.016000055E-2,1.551889926E-1,1.769427313E-1
2.091757028E0,4.760200158E-2,2.969999984E-2,9.048999846E-2,1.064729091E-1
2.096768492E0,2.349999920E-2,3.172200173E-2,7.608799636E-2,8.572000086E-2
2.101780105E0,2.320000058E-4,4.320500046E-2,4.977000132E-2,6.590735103E-2
2.106791559E0,-2.454400063E-2,3.825899959E-2,5.225300044E-2,6.925702182E-2
2.111803172E0,-4.148900136E-2,3.590000048E-2,5.001199991E-2,7.423844963E-2
2.116814636E0,-4.392300174E-2,4.997900128E-2,7.407599688E-2,9.957099961E-2
2.121826235E0,-6.263999641E-2,4.499600083E-2,9.818000346E-2,1.248508002E-1
2.126837699E0,-5.104399845E-2,3.299000114E-2,1.318159997E-1,1.451526360E-1
2.131849326E0,-4.943799973E-2,3.508299962E-2,1.342930049E-1,1.473415890E-1
2.136860790E0,-4.130199924E-2,2.767099999E-2,1.486960053E-1,1.567866110E-1
2.141872393E0,-4.288199916E-2,3.875499964E-2,1.247470006E-1,1.374868358E-1
2.146883857E0,-4.466500133E-2,1.926999912E-2,9.843800217E-2,1.098013455E-1
2.151895547E0,-5.338500068E-2,-6.666999776E-3,7.699199766E-2,9.392643338E-2
2.156906934E0,-5.928900093E-2,-2.016999945E-2,5.322600156E-2,8.218893935E-2
2.161918615E0,-7.185799628E-2,-1.688800007E-2,2.471099980E-2,7.784221019E-2
2.166930230E0,-7.450199872E-2,-3.225700185E-2,1.540699974E-2,8.263436103E-2
2.171941694E0,-6.522200257E-2,-3.801099956E-2,4.199900106E-2,8.638669918E-2
2.176953321E0,-4.686500132E-2,-4.614499956E-2,6.377200037E-2,9.161090200E-2
2.181964785E0,-3.122000024E-2,-4.735099897E-2,1.022519991E-1,1.169285116E-1
2.186976408E0,-1.125899982E-2,-4.429500178E-2,1.502240002E-1,1.570224904E-1
2.191987872E0,8.220000193E-3,-4.410000145E-2,1.861589998E-1,1.914877326E-1
2.196999485E0,3.181499988E-2,-3.266400099E-2,1.932670027E-1,1.985730735E-1
2.202010973E0,5.249100178E-2,-2.167800069E-2,1.715860069E-1,1.807401415E-1
2.207022586E0,5.414500087E-2,-2.285799943E-2,1.451109946E-1,1.565610744E-1
2.212034050E0,6.732399762E-2,-1.718099974E-2,1.329340041E-1,1.499971895E-1
2.217045648E0,7.333199680E-2,-1.634100080E-2,9.682399780E-2,1.225540559E-1
2.222057112E0,8.388300240E-2,-8.662000299E-3,8.938399702E-2,1.228856675E-1
2.227068725E0,7.811000198E-2,-8.015000261E-3,5.087900162E-2,9.356326974E-2
2.232080403E0,7.278899848E-2,-7.127999794E-3,-4.323999863E-3,7.326488693E-2
2.237091867E0,7.243199646E-2,-3.823000006E-3,-2.840499952E-2,7.789642764E-2
2.242103480E0,5.573999882E-2,-7.414000109E-3,-4.525300115E-2,7.217859086E-2
2.247114958E0,5.800199881E-2,-1.309099980E-2,-4.773199931E-2,7.624926163E-2
2.252126571E0,3.681600094E-2,-1.603999920E-2,-5.014799908E-2,6.424578827E-2
2.257138035E0,3.683799878E-2,-1.171199977E-2,-4.300599918E-2,5.782495186E-2
2.262149653E0,2.495300025E-2,-1.211899985E-2,-1.192799956E-2,3.019601881E-2
2.267161117E0,6.200999953E-3,1.628000056E-3,-2.380999969E-3,6.839001788E-3
2.272172807E0,-9.926999919E-3,5.640999880E-3,3.588100150E-2,3.765385074E-2
2.277184189E0,-2.806100063E-2,4.954000004E-3,5.742999911E-2,6.411058158E-2
2.282195802E0,-3.401799873E-2,6.562000141E-3,7.419800013E-2,8.188789475E-2
2.287207480E0,-5.148100108E-2,1.273499988E-2,8.380199969E-2,9.917282312E-2
2.292218944E0,-4.987299815E-2,9.294999763E-3,9.339699894E-2,1.062859933E-1
2.297230557E0,-5.526499823E-2,-1.121000038E-3,8.866500109E-2,1.044842528E-1
2.302242025E0,-5.363399908E-2,-2.043999964E-3,8.152200282E-2,9.760440941E-2
2.307253638E0,-4.738200083E-2,-7.670999970E-3,6.959000230E-2,8.453795990E-2
2.312265102E0,-2.283300087E-2,-2.017600089E-2,5.523100123E-2,6.307836743E-2
2.317276725E0,-1.987900026E-2,-2.761800028E-2,3.849799931E-2,5.138116914E-2
2.322288417E0,-1.011400018E-2,-3.251999989E-2,4.089400172E-2,5.321806807E-2
2.327299804E0,4.081999883E-3,-2.797600068E-2,6.000600010E-2,6.633279268E-2
2.332311266E0,1.548600011E-2,-3.065199964E-2,8.387199789E-2,9.063042156E-2
2.337322956E0,3.821299970E-2,-2.178299986E-2,1.196219996E-1,1.274525606E-1
2.342334581E0,6.274200231E-2,-1.093299966E-2,1.313659996E-1,1.459901201E-1
2.347346045E0,8.212800324E-2,-7.493000012E-3,1.358879954E-1,1.589550290E-1
2.352357648E0,9.186299890E-2,1.202400029E-2,1.188120022E-1,1.506641265E-1
2.357369112E0,9.205000103E-2,1.709299907E-2,9.694500268E-2,1.347727971E-1
2.362380735E0,8.518800139E-2,1.956799999E-2,7.267899811E-2,1.136755865E-1
2.367392199E0,9.242700040E-2,2.432700060E-2,5.795799941E-2,1.117751451E-1
2.372403816E0,5.771499872E-2,1.959699951E-2,5.768100172E-2,8.391758711E-2
2.377415280E0,4.499499872E-2,1.506100036E-2,5.745099857E-2,7.451174994E-2
2.382426893E0,2.581099980E-2,8.276999928E-3,8.360499889E-2,8.788920455E-2
2.387438333E0,2.831999911E-3,3.980000038E-3,9.547899663E-2,9.560386719E-2
2.392449946E0,-1.002699975E-2,1.131599955E-2,1.121499985E-1,1.131645472E-1
2.397461638E0,-2.699000016E-2,1.144099981E-2,9.536399692E-2,9.976797329E-2
2.402473102E0,-2.480000071E-2,1.390200015E-2,8.814799786E-2,9.261951830E-2
2.407484715E0,-1.794300042E-2,1.161099970E-2,7.614199817E-2,7.908457791E-2
2.412496165E0,-2.982399985E-2,7.160000037E-3,5.939700082E-2,6.684863704E-2
2.417507778E0,-2.986500040E-2,-8.647000417E-3,5.944500118E-2,6.708499855E-2
2.422519242E0,-2.762399986E-2,-1.461599953E-2,4.993499815E-2,5.890854651E-2
2.427530860E0,-1.392900012E-2,-6.329999771E-3,3.798900172E-2,4.095424512E-2
2.432542324E0,-1.935300045E-2,-9.664000012E-3,1.650100015E-2,2.720688384E-2
2.437554014E0,-1.780599914E-2,-1.960599981E-2,7.009000052E-3,2.739662235E-2
2.442565656E0,-2.149999927E-4,-1.975899935E-2,-2.512000035E-3,1.991919738E-2
2.447577040E0,1.205599960E-2,-2.214100026E-2,-1.445499994E-2,2.906059259E-2
2.452588497E0,1.686899923E-2,-1.254700031E-2,-3.838000074E-2,4.376088217E-2
2.457600187E0,2.599499933E-2,-1.240000036E-2,-3.840000182E-2,4.800062645E-2
2.462611802E0,2.542800084E-2,-1.460599992E-2,-2.885399945E-2,4.113966146E-2
2.467623266E0,2.942300029E-2,-5.175000057E-3,-1.217100024E-2,3.225874794E-2
2.472634879E0,3.547700122E-2,-1.925100014E-2,-5.049000029E-3,4.067813938E-2
2.477646353E0,2.975600027E-2,-1.682600006E-2,1.642199978E-2,3.792381714E-2
2.482657966E0,2.194900066E-2,-2.400300093E-2,4.269900173E-2,5.367594836E-2
2.487669445E0,2.843400091E-2,-3.113400005E-2,6.419000030E-2,7.679957360E-2
2.492681135E0,2.786299959E-2,-3.593400121E-2,1.000429988E-1,1.098917686E-1
2.497692753E0,2.539999969E-2,-3.850499913E-2,1.000230014E-1,1.101471550E-1
2.502704136E0,2.102299966E-2,-4.345399886E-2,8.089599758E-2,9.420392220E-2
2.507715598E0,2.395999990E-2,-3.432499990E-2,5.936300009E-2,7.263782068E-2
2.512727216E0,8.411999792E-3,-1.838099957E-2,3.306100145E-2,3.875116388E-2
2.517738680E0,-6.655999925E-3,-2.128100023E-2,-2.753000008E-3,2.246691600E-2
2.522750601E0,-6.009999779E-4,-2.162699960E-2,-1.226300001E-2,2.486904667E-2
2.527761992E0,-2.287999913E-2,-2.172899991E-2,-1.215399988E-2,3.381365864E-2
2.532773454E0,-1.931199990E-2,-2.171199955E-2,-1.206799969E-2,3.146427945E-2
2.537785057E0,-2.082500048E-2,-7.687999867E-3,4.716999829E-3,2.269440623E-2
2.542796521E0,-2.943000011E-2,1.445999951E-3,4.751000088E-3,2.984606882E-2
2.547808144E0,-4.029799998E-2,8.151999675E-3,1.197099965E-2,4.282159191E-2
2.552819608E0,-3.451399878E-2,1.246200036E-2,7.218000013E-3,3.739808937E-2
2.557831298E0,-2.628899924E-2,1.453700010E-2,1.444699988E-2,3.333394154E-2
2.562842685E0,-2.741499990E-2,1.654800028E-2,4.082899913E-2,5.188858933E-2
2.567854288E0,-2.617999911E-3,1.158600021E-2,7.198599726E-2,7.295939368E-2
2.572865981E0,1.312899962E-2,1.864900067E-2,3.378999978E-2,4.076665233E-2
2.577877444E0,-6.630000193E-3,7.768000010E-3,-1.405010074E-1,1.408716856E-1
2.582889081E0,-5.148300156E-2,-1.333399955E-2,-3.407090008E-1,3.448346245E-1
2.587900544E0,-5.990400165E-2,-4.272099957E-2,-3.517250121E-1,3.593383605E-1
2.592912157E0,-3.961500153E-2,-3.939300030E-2,-1.691509932E-1,1.781381917E-1
2.597923598E0,9.726000018E-3,-2.101800032E-2,7.995499671E-2,8.324153357E-2
2.602935211E0,8.749800175E-2,1.188100036E-2,3.356780112E-1,3.470976601E-1
2.607946675E0,1.844680011E-1,2.182500064E-2,4.569329917E-1,4.932469291E-1
2.612958288E0,2.548899949E-1,1.909100078E-2,4.056580067E-1,4.794703267E-1
2.617969752E0,2.584150136E-1,-4.894000012E-3,2.802450061E-1,3.812342245E-1
2.622981360E0,1.998469979E-1,-4.478099942E-2,1.742369980E-1,2.688915988E-1
2.627993053E0,1.279900074E-1,-6.948500127E-2,2.786399983E-2,1.482768016E-1
2.633004425E0,7.109999657E-2,-8.619900048E-2,-8.233699948E-2,1.387979059E-1
2.638016116E0,3.783499822E-2,-8.839900047E-2,-1.158050001E-1,1.505213221E-1
2.643027569E0,3.861000063E-3,-9.270299971E-2,-6.298799813E-2,1.121438424E-1
2.648039183E0,-1.717000082E-2,-7.363300025E-2,1.378399972E-2,7.685457893E-2
2.653050646E0,-4.900500178E-2,-5.723199993E-2,4.275799915E-2,8.663277964E-2
2.658062259E0,-6.403899938E-2,-3.191800043E-2,4.057599977E-2,8.225669547E-2
2.663073723E0,-8.159899712E-2,-7.060999982E-3,4.074300081E-2,9.147811851E-2
2.668085336E0,-8.791500330E-2,2.186699957E-2,1.687600091E-2,9.215211816E-2
2.673096800E0,-7.176099718E-2,4.078499973E-2,9.616999887E-3,8.309960051E-2
2.678108490E0,-5.907600001E-2,6.162299961E-2,4.292599857E-2,9.555108168E-2
2.683120099E0,-4.958400130E-2,9.122499824E-2,8.089800179E-2,1.316246944E-1
2.688131560E0,-3.343199939E-2,1.037930027E-1,9.249000251E-2,1.429863160E-1
2.693143174E0,-1.992600039E-2,1.230930015E-1,8.010099828E-2,1.482062834E-1
2.698154622E0,-4.195000045E-3,1.233720034E-1,7.728300244E-2,1.456396640E-1
2.703166236E0,1.932000043E-3,1.074130014E-1,6.254100055E-2,1.243087376E-1
2.708177694E0,3.378999885E-3,9.433499724E-2,5.023900047E-2,1.069320649E-1
2.713189308E0,1.417800039E-2,5.848500133E-2,5.236800015E-2,7.977417198E-2
2.718200781E0,-8.599999710E-4,3.765700012E-2,4.022600129E-2,5.510826107E-2
2.723212471E0,5.495000165E-3,1.745400019E-2,4.008600116E-2,4.406500469E-2
2.728223858E0,-1.159700006E-2,7.000000187E-5,5.915600061E-2,6.028206797E-2
2.733235471E0,-9.565999731E-3,-2.145699970E-2,6.630899757E-2,7.034766767E-2
2.738247164E0,1.771999989E-3,-3.323300183E-2,8.781500161E-2,9.390978065E-2
2.743258550E0,1.751600020E-2,-4.712099954E-2,9.735099971E-2,1.095646659E-1
2.748270236E0,1.908900030E-2,-6.072900072E-2,1.021339968E-1,1.203484722E-1
2.753281699E0,2.779299952E-2,-5.996900052E-2,8.777400106E-2,1.098772365E-1
2.758293304E0,2.721500024E-2,-6.152400002E-2,7.583300024E-2,1.013730869E-1
2.763304767E0,3.610900044E-2,-6.072000042E-2,8.063100278E-2,1.072013851E-1
2.768316371E0,4.031400010E-2,-5.048599839E-2,6.149699911E-2,8.919605113E-2
2.773327834E0,4.449699819E-2,-7.062999904E-2,4.002499953E-2,9.257742813E-2
2.778339524E0,2.761700004E-2,-8.550799638E-2,3.058799915E-2,9.492071338E-2
2.783350911E0,1.118499972E-2,-8.359000087E-2,3.315100074E-2,9.061667238E-2
2.788362601E0,6.941000000E-3,-7.236699760E-2,2.374600060E-2,7.647896683E-2
2.793374217E0,1.911699958E-2,-5.453500152E-2,3.341599926E-2,6.675443858E-2
2.798385704E0,3.573400155E-2,-3.952600062E-2,4.542199895E-2,7.001700922E-2
2.803397318E0,3.566500172E-2,-2.031300031E-2,7.174299657E-2,8.265390424E-2
2.808408781E0,2.408899926E-2,-1.561500039E-2,7.894399762E-2,8.400156476E-2
2.813420385E0,1.763300039E-2,-1.690999954E-3,7.178299874E-2,7.393633134E-2
2.818431848E0,-2.555999905E-3,2.553999890E-3,6.465899944E-2,6.475988156E-2
2.823443477E0,-1.519399974E-2,-2.450000029E-4,4.321400076E-2,4.580794162E-2
2.828454940E0,-2.513300069E-2,4.011000041E-3,4.092499986E-2,4.819347942E-2
2.833466554E0,-4.743000027E-3,1.061700005E-2,2.661399916E-2,2.904344488E-2
2.838478250E0,3.805200011E-2,3.798199818E-2,4.951999988E-3,5.399175123E-2
2.843489713E0,5.611599982E-2,4.605799913E-2,-4.809999838E-3,7.275631119E-2
2.848501313E0,7.101300359E-2,3.529699892E-2,-1.221400034E-2,8.023656657E-2
2.853512699E0,5.733599886E-2,3.173299879E-2,1.930000028E-3,6.556008601E-2
2.858524390E0,6.945999712E-2,3.516500071E-2,1.123999991E-2,7.866133785E-2
2.863535853E0,8.348499984E-2,5.701699853E-2,8.493999951E-3,1.014535921E-1
2.868547467E0,6.696499884E-2,6.434299797E-2,1.056199986E-2,9.346597401E-2
2.873558930E0,3.258800134E-2,5.285299942E-2,1.992600039E-2,6.521091067E-2
2.878570544E0,-3.084599972E-2,3.006099910E-2,8.691500127E-2,9.700183922E-2
2.883582016E0,-6.194199994E-2,1.015499979E-2,1.300999969E-1,1.444504918E-1
2.888593707E0,-8.006200194E-2,-1.155600045E-2,1.518650055E-1,1.720652353E-1
2.893605324E0,-9.971000254E-2,-1.614600047E-2,9.714899957E-2,1.401453034E-1
2.898616795E0,-8.633299917E-2,-2.028799988E-2,6.541999988E-3,8.892574120E-2
2.903628409E0,-8.283100277E-2,-3.545900062E-2,-1.103369966E-1,1.424519869E-1
2.908639867E0,-6.123200059E-2,-5.439500138E-2,-1.817470044E-1,1.993493107E-1
2.913651481E0,-3.390400112E-2,-6.099199876E-2,-1.934109926E-1,2.056144870E-1
2.918662934E0,-1.018700004E-2,-8.391299844E-2,-1.261640042E-1,1.518634987E-1
2.923674625E0,1.024799980E-2,-9.750500321E-2,1.039499976E-2,9.859159788E-2
2.928686016E0,4.874600098E-2,-1.000019982E-1,1.659509987E-1,1.997906560E-1
2.933697630E0,8.177900314E-2,-8.937700093E-2,2.878639996E-1,3.123167237E-1
2.938709093E0,8.880399913E-2,-6.118300185E-2,3.378919959E-1,3.546836772E-1
2.943720798E0,8.464500308E-2,-5.268400162E-2,2.826449871E-1,2.997141460E-1
2.948732184E0,9.012600034E-2,-4.212800041E-2,1.890899986E-1,2.136644377E-1
2.953743798E0,7.910999656E-2,-2.013199963E-2,1.026929989E-1,1.311851402E-1
2.958755490E0,7.040499896E-2,-1.476099994E-2,3.065799922E-2,7.819631650E-2
2.963766953E0,7.769300044E-2,1.164599974E-2,-3.181000007E-3,7.862538005E-2
2.968778567E0,8.197599649E-2,4.446800053E-2,-6.014000159E-3,9.345392057E-2
2.973790274E0,8.813899755E-2,6.729099900E-2,5.441999994E-3,1.110233165E-1
2.978801738E0,7.788500190E-2,7.580400258E-2,3.128699958E-2,1.130981727E-1
2.983813356E0,6.810799986E-2,8.201900125E-2,3.803100064E-2,1.131908707E-1
2.988824743E0,4.501099885E-2,8.122599870E-2,5.682599917E-2,1.088707815E-1
2.993836433E0,2.308299951E-2,6.903900206E-2,5.181600153E-2,8.935382861E-2
2.998847873E0,-3.700000161E-5,5.037400126E-2,4.933699965E-2,7.051014755E-2
3.003859486E0,-1.998399943E-2,3.464699909E-2,5.173899978E-2,6.539647451E-2
3.008870974E0,-4.653700069E-2,2.624299936E-2,4.701400176E-2,7.116673246E-2
3.013882587E0,-6.365200132E-2,2.496100031E-2,6.381099671E-2,9.352257540E-2
3.018894051E0,-3.438499942E-2,4.210099950E-2,1.019880027E-1,1.155697842E-1
3.023905649E0,-2.489300072E-2,4.692199826E-2,1.161670014E-1,1.277345201E-1
3.028917112E0,2.837999957E-3,6.077700108E-2,1.445990056E-1,1.568782028E-1
3.033928721E0,4.470999818E-3,5.568600073E-2,1.275980026E-1,1.392916752E-1
3.038940184E0,3.924999852E-3,4.136199877E-2,1.178169996E-1,1.249282432E-1
3.043951875E0,-3.366000019E-3,2.975600027E-2,1.033039987E-1,1.075568020E-1
3.048963285E0,-1.016000053E-3,2.547100000E-2,9.598500282E-2,9.931225938E-2
3.053974976E0,1.758899912E-2,1.198399998E-2,8.865900338E-2,9.117789220E-2
3.058986587E0,-1.983799972E-2,-3.341700137E-2,2.650799975E-2,4.704164393E-2
3.063998051E0,-3.259000182E-2,-3.777199984E-2,-2.120600082E-2,5.420817891E-2
3.069009653E0,-2.383700013E-2,-4.396500066E-2,-7.127399743E-2,8.706955017E-2
3.074021345E0,-1.989199966E-2,-5.915800110E-2,-6.148099899E-2,8.760864102E-2
3.079032732E0,-2.306899987E-2,-5.065900087E-2,-4.452100024E-2,7.127855629E-2
3.084044194E0,-1.490200032E-2,-4.955400154E-2,8.272999898E-3,5.240335113E-2
3.089055884E0,-2.632000018E-3,-6.032599881E-2,6.102500111E-2,8.584989410E-2
3.094067513E0,6.721000187E-3,-5.470699817E-2,8.739200234E-2,1.033217768E-1
3.099078977E0,6.386999972E-3,-4.243699834E-2,1.232850030E-1,1.305407391E-1
3.104090586E0,4.557099938E-2,-1.914500073E-2,1.733829975E-1,1.802911835E-1
3.109102050E0,3.974600136E-2,-1.989899948E-2,1.253969967E-1,1.330418039E-1
3.114113667E0,1.110900007E-2,-4.140900075E-2,6.797400117E-2,8.036529140E-2
3.119125131E0,-3.600000127E-5,-4.112099856E-2,1.050999970E-3,4.113444323E-2
3.124136817E0,1.018499956E-2,-3.595399857E-2,-3.237500042E-2,4.944254121E-2
3.129148204E0,4.314700142E-2,-2.146700025E-2,-3.718899935E-2,6.087296201E-2
3.134159894E0,5.868899822E-2,-4.976000171E-3,-3.489999846E-2,6.846290223E-2
3.139171271E0,7.129699737E-2,6.537000183E-3,-2.309199981E-2,7.522788486E-2
3.144182884E0,4.155600071E-2,1.444000052E-3,1.031299960E-2,4.284091843E-2
3.149194590E0,4.528699815E-2,1.729900017E-2,5.803199857E-2,7.561666792E-2
3.154206054E0,2.353299968E-2,9.397000074E-3,6.274999678E-2,6.767324272E-2
3.159217667E0,-3.198999912E-2,-2.369100042E-2,7.877999917E-3,4.057938426E-2
3.164229131E0,-2.990899980E-2,-2.562700026E-2,1.284299977E-2,4.142745532E-2
3.169240744E0,4.712000024E-3,-1.862999983E-3,-6.231999956E-3,8.031907408E-3
3.174252208E0,1.723200083E-2,3.229999857E-4,-1.338700019E-2,2.182333512E-2
3.179263821E0,8.297000080E-3,-1.141500007E-2,-1.332600042E-2,1.940939783E-2
3.184275285E0,6.188000087E-3,-2.266200073E-2,5.888999905E-3,2.421854542E-2
3.189286927E0,6.165999919E-3,-1.732699946E-2,3.464300185E-2,3.922221364E-2
3.194298391E0,4.289799929E-2,-2.972000046E-3,8.478300273E-2,9.506433968E-2
3.199310081E0,-7.387000136E-3,-2.162799984E-2,6.328099966E-2,6.728166962E-2
3.204321698E0,-4.223300144E-2,-3.276399896E-2,5.862899870E-2,7.933766777E-2
3.209333170E0,-4.347499833E-2,-2.500900067E-2,6.114599854E-2,7.908450374E-2
3.214344783E0,-1.450499985E-2,-1.755000092E-2,6.597000360E-2,6.978853007E-2
3.219356247E0,-2.806999907E-2,-2.198399976E-2,6.605199724E-2,7.506055844E-2
3.224367864E0,-3.189599887E-2,-2.623699978E-2,7.094500214E-2,8.209097532E-2
3.229379557E0,-2.617700025E-2,-1.891100034E-2,8.777300268E-2,9.352519060E-2
3.234391011E0,-2.047600038E-2,-2.338599972E-2,1.022180021E-1,1.068395597E-1
3.239402625E0,3.898999887E-3,-4.422000144E-3,1.189879999E-1,1.191339599E-1
3.244414088E0,2.628299966E-2,9.561999701E-3,4.244799912E-2,5.083365557E-2
3.249425696E0,2.645700052E-2,2.118800022E-2,-4.832400009E-2,5.902637728E-2
3.254437160E0,2.299300022E-2,2.563999966E-2,-1.079030037E-1,1.132658194E-1
3.259448788E0,1.722300053E-2,2.031200007E-2,-7.177399844E-2,7.655531298E-2
3.264460252E0,3.683000105E-3,1.679800078E-2,1.930600032E-2,2.585457345E-2
3.269471865E0,7.406999823E-3,1.751100086E-2,9.585399926E-2,9.772148162E-2
3.274483334E0,7.017999887E-3,1.774699986E-2,2.224929929E-1,2.233099644E-1
3.279494947E0,2.653300017E-2,2.247299999E-2,2.604539990E-1,2.627647645E-1
3.284506387E0,7.793399692E-2,3.167799860E-2,2.097399980E-1,2.259824556E-1
3.289518077E0,1.118619964E-1,2.205099910E-2,1.111410037E-1,1.592220948E-1
3.294529695E0,4.766499996E-2,-1.506800018E-2,1.758700050E-2,5.299339051E-2
3.299541166E0,1.597099937E-2,-2.781599946E-2,-6.438000128E-3,3.271468314E-2
3.304552780E0,1.743000001E-3,-3.569899872E-2,-1.844500005E-2,4.022032553E-2
3.309564243E0,4.139000084E-3,-3.191100061E-2,5.413999781E-3,3.263057884E-2
3.314575861E0,-6.639999920E-4,-2.845700085E-2,5.317499861E-2,6.031436206E-2
3.319587325E0,1.316899993E-2,-2.999000065E-2,8.652900159E-2,9.252075883E-2
3.324599015E0,1.960200071E-2,-2.707500011E-2,1.222369969E-1,1.267248100E-1
3.329610401E0,-3.433899954E-2,-3.582499921E-2,1.102389991E-1,1.208934836E-1
3.334622014E0,-3.303400055E-2,-3.021099977E-2,8.389899880E-2,9.509464600E-2
3.339633707E0,5.472000223E-3,1.046000049E-3,4.307800159E-2,4.343674854E-2
3.344645170E0,3.339099884E-2,2.230199985E-2,-2.379999933E-4,4.015463417E-2
3.349656784E0,5.102200061E-2,3.621599823E-2,-7.722999901E-3,6.304353894E-2
3.354668247E0,5.409200117E-2,3.836899996E-2,1.350499969E-2,6.767946339E-2
3.359679866E0,5.013800040E-2,4.298999906E-2,2.757400088E-2,7.157013782E-2
3.364691329E0,4.425400123E-2,6.168000028E-2,3.926400095E-2,8.546637251E-2
3.369702909E0,4.110300168E-2,7.069200277E-2,4.379300028E-2,9.276121429E-2
3.374714372E0,1.747299917E-2,6.117999926E-2,3.168899938E-2,7.108087430E-2
3.379725966E0,1.793999970E-2,4.766200110E-2,2.901999978E-3,5.100913195E-2
3.384737430E0,1.597500034E-2,4.176500067E-2,-6.713999901E-3,4.521718381E-2
3.389749038E0,2.276000101E-3,2.930299938E-2,-1.915000030E-3,2.945357659E-2
3.394760731E0,5.013000220E-3,5.630999804E-3,1.727000065E-2,1.884386512E-2
3.399772180E0,-6.448000204E-3,-1.117000007E-3,2.690600045E-2,2.769038201E-2
3.404783794E0,3.237999976E-3,-1.227200031E-2,3.893300146E-2,4.094954503E-2
3.409795262E0,-1.255000010E-3,-2.085199952E-2,4.859400168E-2,5.289383620E-2
3.414806876E0,1.079300046E-2,-3.158599883E-2,6.064800173E-2,6.922675996E-2
3.419818348E0,6.434000097E-3,-3.513000160E-2,4.879900068E-2,6.047194256E-2
3.424829962E0,-2.345999936E-3,-5.740899965E-2,6.093399972E-2,8.375111509E-2
3.429841654E0,-1.773899980E-2,-6.059899926E-2,7.310499996E-2,9.659840498E-2
3.434853117E0,-1.867000014E-2,-6.391800195E-2,6.613200158E-2,9.384839642E-2
3.439864731E0,-1.950800046E-2,-6.962399930E-2,6.156000122E-2,9.496155596E-2
3.444876184E0,-1.319899969E-2,-6.130199879E-2,4.260500148E-2,7.581117860E-2
3.449887569E0,-9.149000049E-3,-5.326600000E-2,3.560699895E-2,6.472116603E-2
3.454899259E0,4.466000013E-3,-4.083500057E-2,4.293600097E-2,5.942173514E-2
3.459910860E0,8.898999542E-3,-3.332800046E-2,5.746399984E-2,6.702282510E-2
3.464922323E0,2.061700076E-2,-2.588899992E-2,6.960300356E-2,7.707061140E-2
3.469933937E0,9.212999605E-3,-1.608699933E-2,5.787000060E-2,6.076683206E-2
3.474945644E0,-6.314999890E-3,-1.633999986E-3,2.942699939E-2,3.014129182E-2
3.479957031E0,-1.231500041E-2,-5.812000018E-3,-6.159999873E-3,1.494604221E-2
3.484968492E0,-1.861299947E-2,-2.870000026E-4,-3.218999878E-2,3.718497196E-2
3.489980173E0,-1.852500066E-2,5.629999796E-4,-1.040900033E-2,2.125652621E-2
3.494991788E0,-4.910000134E-4,3.752999939E-3,2.802800015E-2,2.828241294E-2
3.500003228E0,1.207599975E-2,-7.100000046E-3,9.993699938E-2,1.009140407E-1
3.505014842E0,2.653400041E-2,-2.471300028E-2,1.550900042E-1,1.592723924E-1
3.510026313E0,3.857500106E-2,-4.189100116E-2,1.671980023E-1,1.766297219E-1
3.515037927E0,3.200799972E-2,-5.876599997E-2,1.793680042E-1,1.914440799E-1
3.520049619E0,3.293599933E-2,-6.843499839E-2,1.604560018E-1,1.775225551E-1
3.525061093E0,1.986400038E-2,-7.803300023E-2,1.487559974E-1,1.691510402E-1
3.530072706E0,7.062999997E-3,-8.299300075E-2,1.179220006E-1,1.443721662E-1
3.535084152E0,5.950999912E-3,-8.804900199E-2,9.184899926E-2,1.273745650E-1
3.540095765E0,2.796000056E-2,-6.778699905E-2,7.282199711E-2,1.033435152E-1
3.545107233E0,5.168500170E-2,-5.313000083E-2,7.761300355E-2,1.073215482E-1
3.550118846E0,5.406599864E-2,-3.717499971E-2,1.278070062E-1,1.436653878E-1
3.555130339E0,4.280100018E-2,-2.926499955E-2,2.162780017E-1,2.224062495E-1
3.560141952E0,5.562200025E-2,8.066999726E-3,3.118200004E-1,3.168447507E-1
3.565153415E0,6.426800042E-2,3.699800000E-2,3.403219879E-1,3.483077422E-1
3.570165096E0,-1.471100003E-2,2.791599929E-2,2.709879875E-1,2.728189985E-1
3.575176713E0,-4.184199870E-2,4.510499910E-2,1.515229940E-1,1.635372481E-1
3.580188175E0,-5.610200018E-2,6.928200275E-2,1.776600070E-2,9.090138123E-2
3.585199778E0,-3.750300035E-2,8.870700002E-2,-1.232089996E-1,1.563837091E-1
3.590211242E0,-2.243600041E-2,9.866199642E-2,-1.757239997E-1,2.027720093E-1
3.595222860E0,-1.572299935E-2,8.763200045E-2,-1.852169931E-1,2.055040504E-1
3.600234324E0,-5.650000181E-3,7.916200161E-2,-9.191399813E-2,1.214361069E-1
3.605245937E0,-8.286999539E-3,6.364300102E-2,3.723299876E-2,7.419839713E-2
3.610257391E0,-8.956000209E-3,3.894099966E-2,1.687670052E-1,1.734327346E-1
3.615269081E0,-1.899600029E-2,3.790400177E-2,2.620170116E-1,2.654250850E-1
3.620280698E0,3.635200113E-2,4.817600176E-2,3.239870071E-1,3.295602766E-1
3.625292160E0,-1.199899986E-2,-1.090000005E-4,2.569510043E-1,2.572310371E-1
3.630303554E0,-5.409599841E-2,-3.766699880E-2,1.757529974E-1,1.877080071E-1
3.635315245E0,-4.398800060E-2,-3.910399973E-2,1.112869978E-1,1.258922669E-1
3.640326860E0,-1.829499938E-2,-3.571600094E-2,7.065799832E-2,8.125818391E-2
3.645338319E0,-2.857200056E-2,-3.468000144E-2,3.242100030E-2,5.540923187E-2
3.650349932E0,-1.106499974E-2,-2.180599980E-2,2.042100020E-2,3.185832851E-2
3.655361406E0,-1.057299972E-2,-1.379899960E-2,2.514499985E-2,3.056913035E-2
3.660373096E0,8.373999968E-3,1.055000001E-3,4.893499985E-2,4.965753831E-2
3.665384727E0,3.484999994E-3,2.023600042E-2,7.509800047E-2,7.785467624E-2
3.670396189E0,1.953800023E-2,1.096799970E-2,1.179779992E-1,1.200867968E-1
3.675407817E0,4.681200162E-2,2.743200026E-2,1.344390064E-1,1.449749102E-1
3.680419281E0,4.299300164E-2,4.784300178E-2,1.532430053E-1,1.661949749E-1
3.685430908E0,4.128700122E-2,6.269700080E-2,1.624040008E-1,1.789150353E-1
3.690442372E0,4.153599963E-2,6.292500347E-2,1.356219947E-1,1.551712627E-1
3.695454062E0,3.678999841E-2,6.754600257E-2,1.016220003E-1,1.274480184E-1
3.700465439E0,4.802599922E-2,6.249300018E-2,7.234399766E-2,1.069837636E-1
3.705477052E0,5.852799863E-2,4.127600044E-2,3.586899862E-2,8.009881333E-2
3.710488516E0,6.128099933E-2,1.811200008E-2,-2.215700038E-2,6.763385315E-2
3.715500100E0,7.506000251E-2,-1.867200062E-2,-7.063800097E-2,1.047491039E-1
3.720511792E0,1.063570008E-1,-6.185200065E-2,-9.047900140E-2,1.527217447E-1
3.725523256E0,1.410109997E-1,-9.285999835E-2,-4.580400139E-2,1.749430989E-1
3.730534869E0,1.699520051E-1,-1.145320013E-1,6.579600275E-2,2.152449241E-1
3.735546333E0,1.913789958E-1,-1.365969926E-1,1.965010017E-1,3.064266667E-1
3.740557946E0,2.059199959E-1,-1.590410024E-1,3.176440001E-1,4.106029663E-1
3.745569415E0,2.211319953E-1,-1.701290011E-1,3.885580003E-1,4.783519165E-1
3.750581105E0,1.976049989E-1,-1.721400023E-1,3.878070116E-1,4.680536232E-1
3.755592723E0,1.944359988E-1,-1.580249965E-1,3.416500092E-1,4.236767470E-1
3.760604189E0,1.852030009E-1,-1.350229979E-1,2.811799943E-1,3.627582538E-1
3.765615803E0,1.768169999E-1,-1.078419983E-1,1.776700020E-1,2.728750221E-1
3.770627266E0,1.456969976E-1,-8.566299826E-2,3.355799988E-2,1.723133882E-1
3.775638908E0,1.248530000E-1,-4.724400118E-2,-6.745400280E-2,1.495670745E-1
3.780650372E0,9.993600100E-2,-2.319899946E-2,-1.660189927E-1,1.951607127E-1
3.785661999E0,6.622499973E-2,-6.074000150E-3,-2.070810050E-1,2.174975556E-1
3.790673463E0,3.080799989E-2,1.806499995E-2,-2.361329943E-1,2.388184835E-1
3.795685139E0,-1.749000046E-3,4.890799895E-2,-2.053489983E-1,2.111001243E-1
3.800696526E0,-2.884100005E-2,7.446099818E-2,-1.577890068E-1,1.768434738E-1
3.805708143E0,-7.134900242E-2,8.333999664E-2,-1.077279970E-1,1.537581104E-1
3.810719836E0,-1.171199977E-1,7.832899690E-2,-7.188700140E-2,1.581779586E-1
3.815731285E0,-1.563639939E-1,9.462700039E-2,-5.745799839E-2,1.915865062E-1
3.820742899E0,-1.336719990E-1,1.200129986E-1,-5.263699964E-2,1.871950236E-1
3.825754362E0,-1.297390014E-1,1.216230020E-1,-5.973299965E-2,1.875963602E-1
3.830765976E0,-1.232620031E-1,1.141159981E-1,-7.875099778E-2,1.855200854E-1
3.835777439E0,-1.377850026E-1,1.139440015E-1,-9.053199738E-2,2.004095431E-1
3.840789068E0,-1.219270006E-1,9.775599837E-2,-1.190750003E-1,1.964720957E-1
3.845800531E0,-1.138209999E-1,7.293800265E-2,-1.404339969E-1,1.949278834E-1
3.850812221E0,-8.772899956E-2,6.306300312E-2,-1.522759944E-1,1.867118052E-1
3.855823839E0,-8.588799834E-2,3.282599896E-2,-1.258009970E-1,1.558210041E-1
3.860835300E0,-1.005679965E-1,6.147999782E-3,-8.968099952E-2,1.348866246E-1
3.865846909E0,-1.243759990E-1,-1.953300089E-2,-5.108999833E-2,1.358716864E-1
3.870858372E0,-1.289480031E-1,-3.958300129E-2,-3.398799896E-2,1.391027877E-1
3.875869986E0,-1.333280057E-1,-5.177599937E-2,-3.119499981E-2,1.463907074E-1
3.880881678E0,-1.489540040E-1,-6.790299714E-2,-2.591500059E-2,1.657398552E-1
3.885893147E0,-1.728619933E-1,-8.766900003E-2,-2.287000045E-2,1.951670034E-1
3.890904760E0,-1.978259981E-1,-1.041449979E-1,-5.313000176E-3,2.236281156E-1
3.895916223E0,-1.936900020E-1,-1.198939979E-1,-9.221999906E-3,2.279812117E-1
3.900927837E0,-1.791999936E-1,-1.275990009E-1,-8.480399847E-2,2.357665390E-1
3.905939300E0,-1.613360047E-1,-1.367129982E-1,-1.602479964E-1,2.653284204E-1
3.910950914E0,-1.500899941E-1,-1.312980056E-1,-1.734070033E-1,2.642653238E-1
3.915962410E0,-1.577430069E-1,-1.191139966E-1,-1.171529964E-1,2.297734210E-1
3.920974101E0,-1.361580044E-1,-1.028959975E-1,-4.672399908E-2,1.769455299E-1
3.925985492E0,-1.054029986E-1,-6.865300238E-2,1.862999983E-2,1.271617228E-1
3.930997106E0,-7.302200049E-2,-4.208699986E-2,7.172200084E-2,1.106687558E-1
3.936008569E0,-3.152700141E-2,-2.277600020E-2,3.123600036E-2,4.988372201E-2
3.941020164E0,7.631000131E-3,-5.805999972E-3,-4.295400158E-2,4.401122641E-2
3.946031856E0,4.477800056E-2,2.023500018E-2,-5.991499871E-2,7.748762248E-2
3.951043291E0,7.095699757E-2,1.996799931E-2,-2.196200006E-2,7.691518672E-2
3.956054904E0,7.755500078E-2,3.797899932E-2,2.309500054E-2,8.938994119E-2
3.961066367E0,6.113500148E-2,2.019999921E-2,3.234300017E-2,7.205274481E-2
3.966077981E0,5.988899991E-2,1.171199977E-2,6.558199972E-2,8.958159373E-2
3.971089444E0,7.592900097E-2,1.223499980E-2,1.514849961E-1,1.698900010E-1
3.976101049E0,1.019920036E-1,7.581999991E-3,2.278359979E-1,2.497380577E-1
3.981112512E0,1.168320030E-1,2.577199973E-2,2.730920017E-1,2.981495502E-1
3.986124135E0,1.321399957E-1,4.080399871E-2,2.393849939E-1,2.764617877E-1
3.991135827E0,1.033490002E-1,4.837099835E-2,1.483519971E-1,1.871605845E-1
3.996147291E0,5.925299972E-2,3.967199847E-2,2.635700069E-2,7.602287106E-2
4.001158670E0,6.720700115E-2,6.633300334E-2,-5.742499977E-2,1.105191338E-1
4.006170284E0,7.895900309E-2,6.693799794E-2,-1.317089945E-1,1.675185929E-1
4.011181976E0,8.492899686E-2,8.410099894E-2,-1.558350027E-1,1.963936368E-1
4.016193440E0,8.542300016E-2,9.168300033E-2,-1.345539987E-1,1.838685402E-1
4.021205053E0,9.251499921E-2,9.926900268E-2,-6.546399742E-2,1.506615244E-1
4.026216516E0,9.013299644E-2,9.047300369E-2,2.518800087E-2,1.301681867E-1
4.031228130E0,7.181700319E-2,9.364700317E-2,9.916099906E-2,1.541439161E-1
4.036239822E0,4.998400062E-2,8.507999778E-2,1.301790029E-1,1.633510916E-1
4.041251271E0,4.327800125E-2,6.063299999E-2,1.254079938E-1,1.458647010E-1
4.046262884E0,4.871099815E-2,3.922300041E-2,8.478999883E-2,1.053591429E-1
4.051274348E0,4.249000177E-2,2.547900006E-2,3.464800119E-2,6.045712267E-2
4.056285961E0,2.707299963E-2,-8.640999906E-3,-1.048999955E-3,2.843790761E-2
4.061297401E0,3.504300117E-2,-1.848899946E-2,-2.959799953E-2,4.945600680E-2
4.066309014E0,6.095699966E-2,-3.268599883E-2,-6.779900193E-2,9.685471073E-2
4.071320473E0,6.024000049E-2,-3.256300092E-2,-8.449199796E-2,1.087570890E-1
4.076332086E0,6.381899863E-2,-3.010600060E-2,-5.576299876E-2,8.993746655E-2
4.081343778E0,7.395700365E-2,-3.942200169E-2,-3.186199814E-2,8.966002193E-2
4.086355155E0,8.839800209E-2,-4.389499873E-2,-1.757100038E-2,1.002482805E-1
4.091366845E0,7.239300013E-2,-4.821899906E-2,1.353500038E-2,8.802848728E-2
4.096378309E0,6.162400171E-2,-6.876599789E-2,3.992100060E-2,1.005980434E-1
4.101389937E0,3.984899819E-2,-8.175600320E-2,4.726399854E-2,1.024981574E-1
4.106401401E0,3.991200030E-2,-7.829499990E-2,4.983299971E-2,1.010267422E-1
4.111413076E0,3.570099920E-2,-8.207800239E-2,4.526299983E-2,1.003000447E-1
4.116424463E0,3.177199885E-2,-9.291400015E-2,5.508400127E-2,1.125909345E-1
4.121436086E0,3.748799860E-2,-8.736799657E-2,2.899800055E-2,9.939517544E-2
4.126447778E0,3.152099997E-2,-9.149199724E-2,1.489800029E-2,9.790970029E-2
4.131459256E0,7.201000117E-3,-7.929100096E-2,8.440000238E-4,7.962179081E-2
4.136470869E0,-7.211000193E-3,-8.608300239E-2,-3.600999946E-3,8.645952246E-2
4.141482352E0,-2.598600090E-2,-7.862100005E-2,-1.279900037E-2,8.378751877E-2
4.146493965E0,-4.681900144E-2,-8.298300207E-2,1.153799985E-2,9.597563737E-2
4.151505429E0,-4.881099984E-2,-7.549999654E-2,1.191900019E-2,9.069082505E-2
4.156517037E0,-3.939900175E-2,-6.809099764E-2,2.421200089E-2,8.230969739E-2
4.161528501E0,-4.902499914E-2,-3.994200006E-2,5.083100125E-2,8.113325211E-2
4.166540114E0,-4.460800067E-2,-3.128900006E-2,9.654899687E-2,1.108629065E-1
4.171551807E0,-4.035599902E-2,-4.354999866E-3,1.134919971E-1,1.205321787E-1
4.176563193E0,-5.238600075E-2,1.245000027E-2,9.933999926E-2,1.129943850E-1
4.181574893E0,-3.617100045E-2,1.253999956E-2,7.079300284E-2,8.048131531E-2
4.186586357E0,-8.922000416E-3,2.432000078E-2,1.582599990E-2,3.035665993E-2
4.191597975E0,5.752999801E-3,2.433899976E-2,-3.918100148E-2,4.648262894E-2
4.196609439E0,4.784800112E-2,3.605600074E-2,-9.192299843E-2,1.097237624E-1
4.201621057E0,7.460299879E-2,3.594300151E-2,-8.492100239E-2,1.186131672E-1
4.206632521E0,8.175600320E-2,3.113899939E-2,5.797999911E-3,8.767723847E-2
4.211644201E0,7.480700314E-2,1.946200058E-2,8.698400110E-2,1.163661189E-1
4.216655819E0,6.827100366E-2,1.738700084E-2,1.514589936E-1,1.670421039E-1
4.221667280E0,3.430800140E-2,-8.549999911E-4,1.706099957E-1,1.740274134E-1
4.226678899E0,8.550000377E-3,-2.092600055E-2,1.204850003E-1,1.225872559E-1
4.231690362E0,-1.412799954E-2,-2.402400039E-2,5.824000109E-3,2.847230133E-2
4.236701976E0,7.834999822E-3,-3.618400171E-2,-1.017019972E-1,1.082310743E-1
4.241713424E0,1.754100062E-2,-4.100900143E-2,-1.733510047E-1,1.789971948E-1
4.246725037E0,4.089700058E-2,-4.102500156E-2,-1.828449965E-1,1.918017417E-1
4.251736501E0,5.427699909E-2,-5.523800105E-2,-1.205760017E-1,1.433031806E-1
4.256748210E0,6.270000339E-2,-5.319299921E-2,-1.288400032E-2,8.322729753E-2
4.261759828E0,6.860999763E-2,-2.381299995E-2,8.754599839E-2,1.137483739E-1
4.266771280E0,6.751099974E-2,-9.541999549E-3,1.616259962E-1,1.754187775E-1
4.271782894E0,4.327800125E-2,1.853000023E-3,1.639620066E-1,1.695876133E-1
4.276794357E0,2.190499939E-2,1.761800051E-2,1.160639971E-1,1.194197403E-1
4.281805990E0,1.942499913E-2,2.845899947E-2,5.617399886E-2,6.589964636E-2
4.286817453E0,3.293000162E-2,5.556799844E-2,-2.056000009E-2,6.778569953E-2
4.291829067E0,3.407000005E-2,6.118100137E-2,-4.467999935E-2,8.306733518E-2
4.296840515E0,4.181300104E-2,7.613000274E-2,-3.297000006E-2,9.290384963E-2
4.301852205E0,3.788999841E-2,7.227600366E-2,-9.248999879E-3,8.212805052E-2
4.306863823E0,3.200300038E-2,8.014199883E-2,3.842199966E-2,9.446259613E-2
4.311875284E0,2.899299935E-2,8.082699776E-2,7.656499743E-2,1.150469313E-1
4.316886898E0,1.710800081E-2,8.370099962E-2,1.147560030E-1,1.430646052E-1
4.321898590E0,1.517700031E-2,9.564600140E-2,1.314190030E-1,1.632466026E-1
4.326909977E0,-9.835000150E-3,8.396100253E-2,1.218480021E-1,1.483007511E-1
4.331921414E0,-8.661000058E-3,8.418499678E-2,1.122620031E-1,1.405876380E-1
4.336933028E0,3.996999934E-3,7.277999818E-2,7.633200288E-2,1.055437294E-1
4.341944482E0,6.928999908E-3,5.949100107E-2,5.237999931E-2,7.956666749E-2
4.346956173E0,7.459999993E-3,3.515100107E-2,2.368899994E-2,4.303967000E-2
4.351967785E0,1.270299964E-2,2.100300044E-2,-1.215299964E-2,2.738955325E-2
4.356979170E0,6.217000075E-3,7.420000155E-3,-2.641100064E-2,2.812913875E-2
4.361990860E0,-2.455000067E-3,-1.493899990E-2,-5.018100142E-2,5.241501357E-2
4.367002323E0,-1.647999976E-3,-3.181900084E-2,-7.392299920E-2,8.049704671E-2
4.372013937E0,3.612000030E-3,-4.369499907E-2,-5.700099841E-2,7.191253929E-2
4.377025390E0,1.595000038E-3,-6.224999949E-2,-4.484499991E-2,7.673773830E-2
4.382037004E0,6.651999895E-3,-6.886699796E-2,-1.834299974E-2,7.157777693E-2
4.387048463E0,-6.907999981E-3,-8.491300046E-2,3.453399986E-2,9.192679293E-2
4.392060077E0,-5.859000143E-3,-8.927199990E-2,8.981399983E-2,1.267689726E-1
4.397071526E0,-2.053000033E-3,-7.996399701E-2,1.426939964E-1,1.635849389E-1
4.402083217E0,1.601199992E-2,-8.293399960E-2,1.596579999E-1,1.806242214E-1
4.407094834E0,2.929100022E-2,-8.370000124E-2,1.455029994E-1,1.703959382E-1
4.412106281E0,1.692800038E-2,-9.137199819E-2,9.552799910E-2,1.332703938E-1
4.417117894E0,1.652099937E-2,-7.785499841E-2,5.750000104E-2,9.818652819E-2
4.422129358E0,2.980400063E-2,-4.603299871E-2,1.697400026E-2,5.740585431E-2
4.427140971E0,3.997899964E-2,-2.652199939E-2,-1.884499937E-2,5.154484325E-2
4.432152439E0,5.417000130E-2,-3.900000011E-4,-5.715699866E-2,7.874937230E-2
4.437164130E0,4.903500155E-2,-4.100000078E-4,-4.522499815E-2,6.670757029E-2
4.442175747E0,4.144199938E-2,1.821999997E-2,-2.375200018E-2,5.112304005E-2
4.447187209E0,3.863999993E-2,3.396299854E-2,-1.666500047E-2,5.407640063E-2
4.452198822E0,2.430400066E-2,2.137999982E-2,-1.430399995E-2,3.538916861E-2
4.457210291E0,-3.429000033E-3,4.585999995E-3,-9.433999658E-3,1.103584101E-2
4.462221904E0,-5.110400170E-2,-3.033999912E-2,-1.154899970E-2,6.054348793E-2
4.467233368E0,-7.174699754E-2,-5.505400151E-2,-1.595799997E-2,9.183263309E-2
4.472244962E0,-8.233900368E-2,-6.745500118E-2,-3.554000054E-3,1.065012658E-1
4.477256426E0,-8.546300232E-2,-7.509700209E-2,-3.087999998E-3,1.138113361E-1
4.482268039E0,-7.444299757E-2,-6.868600100E-2,1.887699962E-2,1.030333331E-1
4.487279731E0,-4.985899851E-2,-6.488999724E-2,1.205000002E-2,8.271537931E-2
4.492291195E0,-3.534600139E-2,-5.437099934E-2,1.233099960E-2,6.601211202E-2
4.497302574E0,-1.450700033E-2,-2.790199965E-2,2.919000108E-3,3.158314748E-2
4.502314265E0,1.011100039E-2,-1.368200034E-2,-1.616900042E-2,2.347053550E-2
4.507325866E0,2.686000057E-2,1.172100008E-2,-1.861299947E-2,3.471721795E-2
4.512337330E0,4.751700163E-2,1.107699983E-2,-2.112100087E-2,5.316636199E-2
4.517348957E0,3.720099851E-2,2.217499912E-2,-2.123500034E-2,4.823453240E-2
4.522360421E0,3.179499879E-2,3.088900074E-2,-4.588999785E-3,4.456580791E-2
4.527372044E0,1.750599965E-2,5.352300033E-2,1.927299984E-2,5.951991357E-2
4.532383508E0,3.173299879E-2,6.634300202E-2,4.549900070E-2,8.647853025E-2
4.537395193E0,4.130300134E-2,6.731399894E-2,7.174299657E-2,1.066966257E-1
4.542406810E0,5.103100091E-2,3.806399927E-2,8.369100094E-2,1.051532916E-1
4.547418257E0,4.984699935E-2,1.920199953E-2,1.920700073E-2,5.676573797E-2
4.552429642E0,3.628199920E-2,1.055299956E-2,-8.574199677E-2,9.369866208E-2
4.557441332E0,1.774399914E-2,-1.152800024E-2,-2.095849961E-1,2.106504567E-1
4.562452962E0,2.764000092E-3,-2.154199965E-2,-2.184509933E-1,2.195279798E-1
4.567464426E0,1.502000028E-3,-2.026700042E-2,-1.340859979E-1,1.356173372E-1
4.572476039E0,3.788100183E-2,-1.105000032E-3,-4.288899899E-2,5.723336054E-2
4.577487508E0,6.426099688E-2,1.956900023E-2,9.346300364E-2,1.150988903E-1
4.582499121E0,6.984700263E-2,7.228999864E-3,1.244029999E-1,1.428529614E-1
4.587510813E0,8.388400078E-2,2.638000064E-3,3.801999986E-2,9.213579663E-2
4.592522301E0,1.019110009E-1,-6.120000035E-3,-6.036499888E-2,1.186053945E-1
4.597533914E0,1.101579964E-1,-2.368099988E-2,-1.084749997E-1,1.564046019E-1
4.602545378E0,9.755700082E-2,-4.069799930E-2,-1.086309999E-1,1.515730507E-1
4.607557014E0,9.522800148E-2,-4.336199909E-2,-1.182940006E-1,1.579306994E-1
4.612568478E0,8.455500007E-2,-4.600699991E-2,-1.110949963E-1,1.469975860E-1
4.617580091E0,8.677899837E-2,-5.553799868E-2,-9.900700301E-2,1.428896445E-1
4.622591540E0,8.309099823E-2,-4.619900137E-2,-7.006999850E-2,1.181027790E-1
4.627603153E0,8.555900306E-2,-2.520200051E-2,-5.777699873E-2,1.062716586E-1
4.632614627E0,8.007699996E-2,2.612000098E-3,-9.560500085E-2,1.247375832E-1
4.637626317E0,7.841999829E-2,9.549999610E-3,-2.002640069E-1,2.152825378E-1
4.642637704E0,4.783299938E-2,3.592500091E-2,-3.214519918E-1,3.269709231E-1
4.647649389E0,2.561900020E-2,4.651999846E-2,-4.376789927E-1,4.408892651E-1
4.652661004E0,2.032399923E-2,6.954500079E-2,-5.299249887E-1,5.348551821E-1
4.657672468E0,2.855299972E-2,8.153899759E-2,-5.791119933E-1,5.855207791E-1
4.662684076E0,3.803300112E-2,1.013740003E-1,-6.211799979E-1,6.305456264E-1
4.667695769E0,5.305400118E-2,1.057339981E-1,-6.082860231E-1,6.196824117E-1
4.672707222E0,6.162900105E-2,8.323500305E-2,-5.619310141E-1,5.713953658E-1
4.677718836E0,7.788900286E-2,6.470400095E-2,-5.036870241E-1,5.137644623E-1
4.682730299E0,7.610599697E-2,3.821200132E-2,-4.287070036E-1,4.370834872E-1
4.687741918E0,8.478900045E-2,1.365000033E-3,-3.537519872E-1,3.637739769E-1
4.692753381E0,7.598000020E-2,-2.725799941E-2,-2.620320022E-1,2.741837507E-1
4.697764995E0,6.214400008E-2,-5.042200163E-2,-1.798399985E-1,1.968417640E-1
4.702776458E0,4.372199997E-2,-7.546400279E-2,-1.167109981E-1,1.456979275E-1
4.707788071E0,3.040199913E-2,-9.327100217E-2,-4.155699909E-2,1.065398778E-1
4.712799535E0,1.972999983E-2,-1.064940020E-1,2.645199932E-2,1.114897019E-1
4.717811148E0,1.638199948E-2,-1.130919978E-1,9.924499691E-2,1.513530287E-1
4.722822841E0,6.275999825E-3,-1.134380028E-1,1.696379930E-1,2.041681104E-1
4.727834304E0,8.388999850E-3,-1.123989969E-1,2.328210026E-1,2.586687633E-1
4.732845899E0,6.225000136E-3,-1.053629965E-1,2.720479965E-1,2.918051132E-1
4.737857362E0,-2.292999998E-3,-1.203999966E-1,3.113259971E-1,3.338042743E-1
4.742868985E0,1.541999984E-3,-1.009749994E-1,3.290039897E-1,3.441539677E-1
4.747880448E0,-5.843999796E-3,-9.668800235E-2,3.395209908E-1,3.530683013E-1
4.752892062E0,-2.414200082E-2,-9.520599991E-2,2.879000008E-1,3.041930786E-1
4.757903764E0,-4.853999987E-2,-8.249600232E-2,2.530829906E-1,2.705784953E-1
4.762915227E0,-7.664600015E-2,-7.491300255E-2,1.968149990E-1,2.241042416E-1
4.767926841E0,-9.472200274E-2,-6.522600353E-2,1.668989956E-1,2.026868621E-1
4.772938280E0,-1.124909967E-1,-4.190599918E-2,1.249959990E-1,1.733041745E-1
4.777949894E0,-9.996800125E-2,-2.156700008E-2,1.116840020E-1,1.514333288E-1
4.782961352E0,-1.045840010E-1,1.912399940E-2,8.866599947E-2,1.384384343E-1
4.787972737E0,-1.188829988E-1,3.552399948E-2,5.364499986E-2,1.351773204E-1
4.792984427E0,-1.193680018E-1,5.168600008E-2,1.802999992E-3,1.300900199E-1
4.797996033E0,-1.110140011E-1,3.042300045E-2,-5.425180197E-1,5.545948693E-1
4.803007496E0,-2.063239962E-1,-2.425700054E-2,-2.752470076E-1,3.448462102E-1
4.808019163E0,-1.651840061E-1,6.728500128E-2,-2.596499920E-1,3.150097548E-1
4.813030549E0,-1.042469963E-1,6.537099928E-2,4.377999809E-3,1.231258327E-1
4.818042163E0,-7.071000338E-2,8.583600074E-2,2.296240032E-1,2.551370346E-1
4.823053880E0,-2.138400078E-2,7.433799654E-2,4.257360101E-1,4.327060937E-1
4.828065343E0,-7.116999943E-3,5.014900118E-2,5.665900111E-1,5.688495537E-1
4.833076957E0,2.719100006E-2,4.389100149E-2,6.401879787E-1,6.422666258E-1
4.838088649E0,4.686500132E-2,3.671300039E-2,6.012139916E-1,6.041543151E-1
4.843100036E0,4.826699942E-2,2.667099983E-2,4.641810060E-1,4.674452393E-1
4.848111721E0,4.828700051E-2,2.588599920E-2,2.889420092E-1,2.940904692E-1
4.853123185E0,8.405499905E-2,5.517499894E-2,1.447030008E-1,1.762057939E-1
4.858134798E0,1.168060005E-1,1.068039984E-1,9.119299799E-2,1.826660852E-1
4.863146267E0,9.570100158E-2,1.199290007E-1,4.495999962E-2,1.598844848E-1
4.868157880E0,4.301600158E-2,1.145090014E-1,1.811500080E-2,1.236561403E-1
4.873169344E0,6.031999830E-3,1.189519987E-1,-1.096399967E-2,1.196084123E-1
4.878180967E0,-3.904400021E-2,1.166950017E-1,-5.900000036E-2,1.364666898E-1
4.883192431E0,-9.456899762E-2,9.407299757E-2,-1.091770008E-1,1.723735528E-1
4.888204048E0,-1.187250018E-1,7.685299963E-2,-1.042319983E-1,1.756881302E-1
4.893215740E0,-1.333329976E-1,5.997600034E-2,-6.815099716E-2,1.613051991E-1
4.898227127E0,-1.134060025E-1,4.510999843E-2,5.390999839E-2,1.334245903E-1
4.903238817E0,-8.305100352E-2,2.249599993E-2,2.188459933E-1,2.351533712E-1
4.908250281E0,-4.671199992E-2,2.701400034E-2,3.930940032E-1,3.967803706E-1
4.913261894E0,-2.956400067E-2,3.231799975E-2,5.504369736E-1,5.521769147E-1
4.918273353E0,-2.604000084E-2,3.382999822E-2,6.431120038E-1,6.445274237E-1
4.923285043E0,-1.920799911E-2,5.062900111E-2,6.567720175E-1,6.590005508E-1
4.928296430E0,-6.905999966E-3,6.175899878E-2,5.747020245E-1,5.780521462E-1
4.933308063E0,1.051899977E-2,6.779100001E-2,4.447799921E-1,4.500394543E-1
4.938319527E0,3.004300036E-2,9.913299978E-2,3.195270002E-1,3.358979568E-1
4.943331116E0,5.370900035E-2,1.413349956E-1,2.252299935E-1,2.712725339E-1
4.948342808E0,9.302400053E-2,1.779620051E-1,1.403390020E-1,2.449877047E-1
4.953354272E0,1.055959985E-1,2.045429945E-1,1.032370031E-1,2.522820451E-1
4.958365890E0,1.154619977E-1,2.050659955E-1,9.724800289E-2,2.546383896E-1
4.963377354E0,1.064919978E-1,2.011930048E-1,1.248300001E-1,2.596183732E-1
4.968388976E0,6.769900024E-2,1.789299995E-1,1.502110064E-1,2.432333155E-1
4.973400440E0,4.180999845E-2,1.620829999E-1,1.565919966E-1,2.292161169E-1
4.978412053E0,3.769399971E-2,1.270499974E-1,1.535110027E-1,2.028008072E-1
4.983423531E0,4.281599820E-2,8.356299996E-2,1.672469974E-1,1.918007893E-1
4.988435221E0,3.146199882E-2,5.050100014E-2,1.858679950E-1,1.951592169E-1
4.993446853E0,6.572999991E-3,4.261999857E-3,1.998759955E-1,2.000294542E-1
4.998458315E0,-1.062100008E-2,-2.680600062E-2,1.757140011E-1,1.780639702E-1
5.003469957E0,-2.470899932E-2,-6.632699817E-2,1.564929932E-1,1.717552394E-1
5.008481421E0,-3.832399845E-2,-8.609499782E-2,1.086490005E-1,1.438251815E-1
5.013493034E0,-4.909399897E-2,-1.167260036E-1,6.572200358E-2,1.426694165E-1
5.018504498E0,-4.785199836E-2,-1.299269944E-1,1.328499988E-2,1.390946759E-1
5.023516111E0,-5.369300023E-2,-1.517270058E-1,-2.470500022E-2,1.628323052E-1
5.028527575E0,-5.471500009E-2,-1.563699991E-1,-4.830000177E-2,1.725636057E-1
5.033539265E0,-6.498400122E-2,-1.653870046E-1,-7.183100283E-2,1.916650064E-1
5.038550887E0,-5.653300136E-2,-1.672659963E-1,-3.797300160E-2,1.805985676E-1
5.043562348E0,-3.449200094E-2,-1.554110050E-1,1.251500007E-2,1.596837620E-1
5.048573952E0,7.149999728E-4,-1.371500045E-1,5.086600035E-2,1.462805009E-1
5.053585416E0,2.558599971E-2,-1.244829968E-1,9.625999629E-2,1.594259915E-1
5.058597106E0,4.977799952E-2,-1.031389982E-1,1.223739982E-1,1.676033938E-1
5.063608507E0,6.189399958E-2,-7.794699818E-2,1.196850017E-1,1.556634232E-1
5.068620120E0,5.982000008E-2,-7.207900286E-2,1.002459973E-1,1.371972122E-1
5.073631589E0,5.104200169E-2,-5.017900094E-2,7.121799886E-2,1.009713892E-1
5.078643202E0,6.353499740E-2,-5.435200036E-2,2.543799952E-2,8.739523818E-2
5.083654666E0,1.011969969E-1,-3.982099891E-2,1.056000008E-3,1.087550425E-1
5.088666587E0,1.122049987E-1,-3.252699971E-2,-3.292899951E-2,1.213766306E-1
5.093678050E0,9.033299983E-2,-3.698499873E-2,-3.812599927E-2,1.047928090E-1
5.098689435E0,6.228600070E-2,-5.510300025E-2,-4.557000101E-2,9.482885379E-2
5.103701054E0,2.372100018E-2,-7.953900099E-2,-2.410000004E-2,8.642886398E-2
5.108712517E0,-1.115799975E-2,-8.699200302E-2,-9.676000103E-3,8.823680936E-2
5.113724192E0,-3.302999958E-2,-8.252900094E-2,-4.736000206E-3,8.901936063E-2
5.118735809E0,-4.715500027E-2,-8.760400116E-2,1.461500023E-2,1.005567168E-1
5.123747271E0,-5.835700035E-2,-9.022600204E-2,1.726699993E-2,1.088320735E-1
5.128758890E0,-6.445699930E-2,-8.112099767E-2,-1.604999998E-3,1.036238247E-1
5.133770353E0,-5.655400082E-2,-8.158300072E-2,-1.365000033E-3,9.927741053E-2
5.138781967E0,-4.659900069E-2,-7.504700124E-2,1.318699960E-2,8.931638270E-2
5.143793430E0,-4.418300092E-2,-6.172899902E-2,3.006800078E-2,8.164981054E-2
5.148805044E0,-3.966100141E-2,-4.646100104E-2,4.210299999E-2,7.419085023E-2
5.153816746E0,-2.384600043E-2,-3.390999883E-2,4.447900131E-2,6.080214894E-2
5.158828209E0,6.750000175E-4,-2.167199925E-2,4.435899854E-2,4.937460813E-2
5.163839823E0,2.674699947E-2,-2.743999939E-3,3.694500029E-2,4.569315663E-2
5.168851286E0,5.198699981E-2,6.469000131E-3,3.423099965E-2,6.258000838E-2
5.173862900E0,6.725399941E-2,2.257799916E-2,2.906600013E-2,7.666615190E-2
5.178874363E0,8.908499777E-2,3.610099852E-2,2.383000031E-2,9.903175166E-2
5.183885972E0,9.649500251E-2,5.387799814E-2,5.204899982E-2,1.221606425E-1
5.188897435E0,9.697099775E-2,5.735899881E-2,6.593900174E-2,1.305426409E-1
5.193909029E0,1.027529985E-1,6.816399843E-2,2.485400066E-2,1.257864489E-1
5.198920492E0,8.665499836E-2,6.776399910E-2,-1.117039993E-1,1.567763751E-1
5.203932106E0,3.553599864E-2,7.508499920E-2,-2.335699946E-1,2.479022119E-1
5.208943789E0,-1.360500045E-2,4.764100164E-2,-2.379129976E-1,2.430171918E-1
5.213955253E0,-2.252800018E-2,2.769800089E-2,-1.345899999E-1,1.392449573E-1
5.218966866E0,-3.756000102E-2,1.230600011E-2,3.559900075E-2,5.319285826E-2
5.223978329E0,-4.482499883E-2,1.073199976E-2,2.319040000E-1,2.364401015E-1
5.228989943E0,-6.020899862E-2,-3.161000088E-3,3.682760000E-1,3.731786806E-1
5.234001401E0,-5.717400089E-2,-7.706999779E-3,3.203079998E-1,3.254619471E-1
5.239013092E0,-3.779000044E-2,-1.655999944E-2,1.120169982E-1,1.193738900E-1
5.244024709E0,-1.186500024E-2,-1.778399944E-2,-6.518899649E-2,6.860505908E-2
5.249036176E0,8.607000113E-3,-2.333300002E-2,-1.586699933E-1,1.606072106E-1
5.254047789E0,3.516900167E-2,-2.632700093E-2,-1.565189958E-1,1.625674189E-1
5.259059243E0,3.998300061E-2,-2.242599986E-2,-1.137330011E-1,1.226244728E-1
5.264070856E0,4.937500134E-2,-3.518500179E-2,-3.506100178E-2,7.003676859E-2
5.269082320E0,6.334300339E-2,-4.119100049E-2,9.141500294E-2,1.185990614E-1
5.274093923E0,8.436500281E-2,-3.130000085E-2,1.771370023E-1,1.986823126E-1
5.279105387E0,8.217400312E-2,-2.676700056E-2,2.102359980E-1,2.273064319E-1
5.284117077E0,6.199400127E-2,-1.805900037E-2,2.075009942E-1,2.173155454E-1
5.289128690E0,4.269500077E-2,-1.451500040E-2,1.880670041E-1,1.933978965E-1
5.294140075E0,3.572300076E-2,9.721999988E-3,1.542450041E-1,1.586258848E-1
5.299151765E0,3.820300102E-2,3.572899848E-2,1.036180034E-1,1.160720520E-1
5.304163233E0,4.507799819E-2,5.653899908E-2,5.531999841E-2,9.104387164E-2
5.309174846E0,3.072999977E-2,7.003299892E-2,3.575899825E-2,8.442546878E-2
5.314186296E0,9.597999975E-3,8.799199760E-2,4.014199972E-2,9.719101495E-2
5.319197909E0,-4.013000056E-3,9.408500046E-2,4.695799947E-2,1.052290131E-1
5.324209392E0,-1.725099981E-2,9.794899821E-2,5.861100182E-2,1.154419888E-1
5.329221005E0,-2.314100042E-2,8.578799665E-2,6.315600127E-2,1.090126908E-1
5.334232464E0,-3.586100042E-2,9.048999846E-2,5.577800050E-2,1.121857233E-1
5.339244077E0,-4.587100074E-2,8.367899805E-2,5.324900150E-2,1.092784498E-1
5.344255769E0,-6.720200181E-2,6.567399949E-2,3.408500180E-2,9.995484282E-2
5.349267233E0,-6.709899753E-2,7.161200047E-2,2.687799931E-2,1.017495992E-1
5.354278846E0,-7.406499982E-2,6.125399843E-2,1.971600018E-2,9.811420481E-2
5.359290296E0,-7.394500077E-2,4.682200029E-2,7.809999865E-3,8.787012546E-2
5.364301909E0,-7.857800275E-2,3.747300059E-2,3.107999917E-3,8.711135375E-2
5.369313602E0,-7.153200358E-2,1.918400079E-2,3.209999995E-3,7.412932971E-2
5.374325070E0,-5.785200000E-2,6.053000223E-3,2.243199944E-2,6.234330208E-2
5.379336683E0,-4.702199996E-2,-9.037000127E-3,4.163999856E-2,6.345569581E-2
5.384348142E0,-3.175099939E-2,-2.824899927E-2,3.932699934E-2,5.790289111E-2
5.389359755E0,-4.244200140E-2,-6.315799803E-2,4.669100046E-2,8.927656872E-2
5.394371233E0,-2.958800085E-2,-8.534500003E-2,4.210799932E-2,9.966093734E-2
5.399382846E0,-2.868800052E-2,-1.022550017E-1,2.798900008E-2,1.098292805E-1
5.404394320E0,-1.155200042E-2,-1.139919981E-1,4.495700076E-2,1.230802838E-1
5.409405933E0,-6.556000095E-3,-1.115960032E-1,5.471500009E-2,1.244603563E-1
5.414417631E0,-1.671000035E-3,-1.115090027E-1,4.293200001E-2,1.194998182E-1
5.419429094E0,-6.128000095E-3,-9.974800050E-2,1.200800017E-2,1.006548958E-1
5.424440708E0,3.537999932E-3,-8.127199858E-2,-7.003000006E-3,8.164984511E-2
5.429452151E0,1.057699975E-2,-8.415000141E-2,-2.123999968E-2,8.743130587E-2
5.434463765E0,1.743200049E-2,-7.983300090E-2,-3.070499934E-2,8.729249486E-2
5.439475219E0,3.092600033E-2,-7.095099986E-2,-2.827100083E-2,8.239970488E-2
5.444486909E0,2.996399999E-2,-4.836500064E-2,-2.349999920E-2,6.155700239E-2
5.449498527E0,2.893099934E-2,-4.500799999E-2,-6.777000148E-3,5.393190629E-2
5.454510002E0,3.943200037E-2,-4.410799965E-2,9.901000187E-3,5.998689933E-2
5.459521616E0,4.952700064E-2,-3.384700045E-2,2.174099907E-2,6.380606767E-2
5.464533089E0,3.381099924E-2,-3.564900160E-2,3.362200037E-2,5.953548432E-2
5.469544703E0,6.986999884E-3,-2.588500082E-2,4.555499926E-2,5.285933591E-2
5.474556166E0,-5.171999801E-3,-1.189600024E-2,4.790300131E-2,4.962823731E-2
5.479567775E0,6.138999946E-3,-1.004800014E-2,4.541200027E-2,4.691374421E-2
5.484579238E0,1.223300025E-2,-5.991999991E-3,4.525899887E-2,4.726444052E-2
5.489590929E0,2.262499928E-2,-2.043999964E-3,4.026899859E-2,4.623484375E-2
5.494602556E0,2.126399986E-2,-5.042999983E-3,1.813999959E-3,2.192897934E-2
5.499614017E0,4.568099976E-2,8.387000300E-3,-7.996000350E-3,4.712782123E-2
5.504625655E0,4.869600013E-2,9.824999608E-3,4.441799968E-2,6.663925076E-2
5.509637118E0,4.016400129E-2,-5.249999813E-4,1.447419971E-1,1.502120779E-1
5.514648732E0,3.453600034E-2,1.026000013E-3,1.541769952E-1,1.580010564E-1
5.519660195E0,1.322199963E-2,-1.897000009E-3,1.350159943E-1,1.356751215E-1
5.524671886E0,-9.452999569E-3,1.183800027E-2,3.458499908E-2,3.775737826E-2
5.529683281E0,-1.736599952E-2,7.203000132E-3,-8.729100227E-2,8.929266615E-2
5.534694972E0,-1.836200058E-2,1.247499976E-2,-1.756660044E-1,1.770630786E-1
5.539706582E0,2.416899987E-2,2.463199943E-2,-2.044170052E-1,2.073094015E-1
5.544718046E0,4.611799866E-2,2.446400002E-2,-1.136789992E-1,1.250930532E-1
5.549729659E0,5.086100101E-2,1.911400072E-2,1.766699925E-2,5.713413437E-2
5.554741123E0,6.003399938E-2,8.639000356E-3,1.369960010E-1,1.498219533E-1
5.559752736E0,5.320699885E-2,-6.744999904E-3,2.133110017E-1,2.199501379E-1
5.564764199E0,5.409099907E-2,-1.494400017E-2,2.107100040E-1,2.180547296E-1
5.569775890E0,1.831299998E-2,-1.135199983E-2,1.460279971E-1,1.476089761E-1
5.574787502E0,4.647000227E-3,-5.504000001E-3,6.463900208E-2,6.503913605E-2
5.579798964E0,-1.907999977E-3,7.284999825E-3,1.194099989E-2,1.411733561E-2
5.584810577E0,7.563999854E-3,8.235000074E-3,-7.309999783E-3,1.335909491E-2
5.589822041E0,1.848099940E-2,3.021799959E-2,-5.146999843E-3,3.579338550E-2
5.594833654E0,1.707299985E-2,3.317800164E-2,8.954999968E-3,3.837263532E-2
5.599845113E0,1.490000053E-3,2.450600080E-2,3.027700074E-2,3.898026359E-2
5.604856726E0,-1.134900004E-2,2.082199976E-2,7.078900188E-2,7.465546372E-2
5.609868398E0,-2.387199923E-2,2.184999920E-2,1.185019985E-1,1.228414362E-1
5.614879785E0,-4.072799906E-2,6.541999988E-3,1.399639994E-1,1.459160334E-1
5.619891485E0,-5.933099985E-2,-8.462999947E-3,1.782539934E-1,1.880592355E-1
5.624902949E0,-6.564199924E-2,-1.386300009E-2,1.758970022E-1,1.882572979E-1
5.629914562E0,-7.643400133E-2,-7.594999857E-3,1.639759988E-1,1.810744840E-1
5.634926026E0,-7.526499778E-2,-2.042499930E-2,1.759860069E-1,1.924917533E-1
5.639937716E0,-6.479600072E-2,-2.739999909E-3,1.424670070E-1,1.565339497E-1
5.644949333E0,-2.680899948E-2,1.882600039E-2,1.159569994E-1,1.204955038E-1
5.649960809E0,-2.016000077E-2,3.740299866E-2,1.037430018E-1,1.121071825E-1
5.654972422E0,-4.141600057E-2,3.685700148E-2,6.767600030E-2,8.748579701E-2
5.659983872E0,-2.010300010E-2,5.029800162E-2,4.111000150E-2,6.800038091E-2
5.664995485E0,5.415999796E-3,5.654900149E-2,1.210100017E-2,5.808232802E-2
5.670006949E0,-4.308000207E-3,3.964899853E-2,-2.636799961E-2,4.781080792E-2
5.675018571E0,-1.119800005E-2,3.042799979E-2,-4.322800040E-2,5.403626926E-2
5.680030264E0,-4.084900022E-2,2.859600075E-2,-6.475300342E-2,8.172712848E-2
5.685041650E0,-1.044640020E-1,2.910399996E-2,-2.867799997E-2,1.121703981E-1
5.690053341E0,-1.266860068E-1,3.191399947E-2,-1.168499980E-2,1.311654943E-1
5.695064804E0,-1.530849934E-1,2.531700023E-2,1.973300055E-2,1.564140563E-1
5.700076408E0,-1.488399953E-1,2.562100068E-2,7.502300292E-2,1.686363864E-1
5.705087871E0,-1.195269972E-1,3.955899924E-2,1.205810010E-1,1.743312803E-1
5.710099484E0,-2.617100067E-2,4.588099942E-2,1.490879953E-1,1.581683209E-1
5.715110944E0,5.515300110E-2,2.851800062E-2,1.725990027E-1,1.834272216E-1
5.720122634E0,1.367949992E-1,1.164299995E-2,1.313440055E-1,1.899991554E-1
5.725134252E0,1.955319941E-1,-3.255800158E-2,6.851900369E-2,2.097323009E-1
5.730145693E0,2.319670022E-1,-7.532899827E-2,3.327999962E-3,2.439143777E-1
5.735157307E0,2.303809971E-1,-1.165419966E-1,-5.455499887E-2,2.638819597E-1
5.740168790E0,2.334430069E-1,-1.307239980E-1,-7.650700212E-2,2.782763419E-1
5.745180404E0,2.199440002E-1,-1.304389983E-1,-6.492999941E-2,2.638287330E-1
5.750191871E0,2.019360065E-1,-1.113480031E-1,-5.813299865E-2,2.378149997E-1
5.755203485E0,1.771930009E-1,-8.799599856E-2,-2.978800051E-2,2.000699385E-1
5.760214953E0,1.483660042E-1,-6.522600353E-2,-1.419999986E-3,1.620768927E-1
5.765226567E0,1.087730005E-1,-2.685000002E-2,7.837000303E-3,1.123116500E-1
5.770238259E0,6.345099956E-2,-5.818999838E-3,1.000299957E-2,6.449767519E-2
5.775249727E0,7.877999917E-3,1.481099986E-2,9.898000397E-3,1.947816755E-2
5.780261341E0,-3.432400152E-2,3.275699914E-2,-4.461000208E-3,4.765562502E-2
5.785272804E0,-4.755499959E-2,2.707700059E-2,-1.399500016E-2,5.648452865E-2
5.790284418E0,-5.808800086E-2,2.879399993E-2,-2.827199921E-2,7.072917514E-2
5.795295881E0,-7.541099936E-2,3.995500132E-2,-1.859500073E-2,8.734411833E-2
5.800307577E0,-8.776800334E-2,3.475200012E-2,-1.126999967E-2,9.506806412E-2
5.805319194E0,-8.834800124E-2,2.285600081E-2,-6.322000176E-3,9.147531789E-2
5.810330661E0,-7.508499920E-2,-4.838999826E-3,8.213000372E-3,7.568768988E-2
5.815342274E0,-4.608599842E-2,-1.549500041E-2,2.985999919E-2,5.705816190E-2
5.820353742E0,-1.103200018E-2,-2.121100016E-2,4.663199931E-2,5.240376815E-2
5.825365355E0,-1.959999936E-4,-3.376299888E-2,7.297399640E-2,8.040635957E-2
5.830376828E0,1.966200024E-2,-4.377900064E-2,9.688500315E-2,1.081198362E-1
5.835388442E0,2.515799925E-2,-5.129399896E-2,1.016589999E-1,1.166128274E-1
5.840399905E0,4.701200128E-2,-5.627999827E-2,8.726699650E-2,1.139872587E-1
5.845411500E0,4.521999881E-2,-5.879899859E-2,6.572700292E-2,9.910706050E-2
5.850423192E0,4.812600091E-2,-4.266799986E-2,3.936000168E-2,7.540477378E-2
5.855434656E0,5.094200000E-2,-2.684400044E-2,1.535999961E-2,5.959544708E-2
5.860446269E0,5.126399919E-2,-1.598099992E-2,9.100000025E-4,5.370491664E-2
5.865457733E0,1.891800016E-2,-1.690199971E-2,-1.106099971E-2,2.767515201E-2
5.870469341E0,-1.266600005E-2,-8.410000242E-3,-1.441000029E-3,1.527193971E-2
5.875481033E0,-2.477500029E-2,-4.736000206E-3,1.538100000E-2,2.954328178E-2
5.880492405E0,-4.360000044E-2,-1.104000024E-3,3.702799976E-2,5.721233801E-2
5.885503867E0,-3.637599945E-2,1.409799978E-2,8.494699746E-2,9.347705233E-2
5.890515557E0,-3.400399908E-2,2.410499938E-2,1.328330040E-1,1.392189998E-1
5.895527177E0,-1.494999975E-2,4.994900152E-2,1.304000020E-1,1.404370527E-1
5.900538641E0,1.880500093E-2,6.847000122E-2,3.556000069E-3,7.109440388E-2
5.905550254E0,2.314399928E-2,8.234299719E-2,-1.327050030E-1,1.578817017E-1
5.910561718E0,1.666199975E-2,5.644100159E-2,-1.443759948E-1,1.559090657E-1
5.915573331E0,4.736600071E-2,4.484099895E-2,-4.607199878E-2,7.985538355E-2
5.920585014E0,5.766300112E-2,2.127600089E-2,5.451599881E-2,8.215646072E-2
5.925596478E0,3.592399880E-2,-9.084000252E-3,1.454810053E-1,1.501258660E-1
5.930608091E0,6.399999838E-3,-2.264999971E-2,2.292149961E-1,2.304202615E-1
5.935619555E0,1.627199911E-2,-2.657200024E-2,2.123440057E-1,2.146178602E-1
5.940631177E0,4.642499983E-2,-9.233999997E-3,8.287999779E-2,9.544444143E-2
5.945642641E0,4.988899827E-2,9.019999998E-4,-5.858099833E-2,7.695101765E-2
5.950654254E0,3.221099824E-2,1.735000056E-3,-1.425579935E-1,1.461620339E-1
5.955665713E0,4.982899874E-2,-2.063000109E-3,-1.523939967E-1,1.603468594E-1
5.960677326E0,6.251700222E-2,-1.057200041E-2,-1.119849980E-1,1.286887040E-1
5.965688785E0,4.030200094E-2,-3.080900013E-2,-1.404399984E-2,5.263724632E-2
5.970700398E0,2.160399966E-2,-3.939300030E-2,8.396899700E-2,9.523304958E-2
5.975711862E0,1.116000023E-2,-6.697499752E-2,1.749030054E-1,1.876199808E-1
5.980723539E0,1.792600006E-2,-7.105299830E-2,2.036319971E-1,2.164159428E-1
5.985735156E0,1.790699922E-2,-7.313600183E-2,1.916880012E-1,2.059461706E-1
5.990746618E0,1.806299947E-2,-6.593199819E-2,1.414510012E-1,1.571040613E-1
5.995758212E0,3.438799828E-2,-5.663599819E-2,9.832400084E-2,1.185655087E-1
6.000769905E0,4.996100068E-2,-3.132199869E-2,5.747700110E-2,8.234546039E-2
6.005781377E0,8.086799830E-2,-1.899000024E-3,4.518299922E-2,9.265388696E-2
6.010792991E0,9.196499735E-2,1.747100055E-2,5.194399878E-2,1.070559462E-1
6.015804454E0,7.479400188E-2,3.632900119E-2,8.503100276E-2,1.189294349E-1
6.020816063E0,6.743799895E-2,5.698100105E-2,1.324570030E-1,1.591840941E-1
6.025827526E0,6.736300141E-2,7.932399958E-2,1.439529955E-1,1.776303347E-1
6.030839140E0,3.721699864E-2,8.712600172E-2,1.459520012E-1,1.740058385E-1
6.035850598E0,3.500000108E-3,7.610499859E-2,1.169639975E-1,1.395879562E-1
6.040862288E0,-2.461099997E-2,7.006599754E-2,1.072020009E-1,1.304117109E-1
6.045873906E0,-4.972799867E-2,5.040799826E-2,9.753700346E-2,1.205292794E-1
6.050885377E0,-8.348699659E-2,4.763700068E-2,6.642399728E-2,1.168396758E-1
6.055896991E0,-8.390200138E-2,3.798599914E-2,6.163899973E-2,1.108235005E-1
6.060908454E0,-6.340699643E-2,3.330200166E-2,4.006699845E-2,8.206603972E-2
6.065920068E0,-5.050700158E-2,2.173699997E-2,4.480100051E-2,7.092661012E-2
6.070931531E0,-3.553299978E-2,1.751199923E-2,3.516099975E-2,5.296753811E-2
6.075943135E0,-1.848500036E-2,-7.443999872E-3,2.315700054E-2,3.055085999E-2
6.080954598E0,-2.033999935E-2,-3.390799835E-2,2.079799958E-2,4.467689237E-2
6.085966275E0,-2.667899989E-2,-5.728000030E-2,1.761000021E-3,6.321288310E-2
6.090977892E0,-2.107200027E-2,-7.749000192E-2,-1.004999969E-2,8.093041509E-2
6.095989582E0,-2.256000042E-2,-9.479799867E-2,-2.859999950E-4,9.744586172E-2
6.101000974E0,-3.155000042E-3,-1.023470014E-1,1.900899969E-2,1.041451141E-1
6.106012435E0,-2.796000103E-3,-1.120269969E-1,2.875900082E-2,1.156933264E-1
6.111024126E0,-9.236999787E-3,-1.214239970E-1,5.530900136E-2,1.337467564E-1
6.116035741E0,-1.526500005E-2,-1.211680025E-1,6.515000015E-2,1.384168616E-1
6.121047205E0,-2.775200084E-2,-1.161559969E-1,5.829900131E-2,1.328953074E-1
6.126058613E0,-3.274599835E-2,-1.019409969E-1,4.905699939E-2,1.177746002E-1
6.131070304E0,-4.216000065E-2,-8.095300198E-2,2.307100035E-2,9.414417264E-2
6.136081919E0,-5.142299831E-2,-5.807200074E-2,9.029000066E-3,7.809100376E-2
6.141093383E0,-7.452899963E-2,-3.322400153E-2,-7.389000151E-3,8.193292004E-2
6.146104986E0,-8.095899969E-2,3.450000077E-4,-1.429700013E-2,8.221242527E-2
6.151116450E0,-8.055300266E-2,3.548099846E-2,-2.368099988E-2,9.115084884E-2
6.156128063E0,-5.264100060E-2,6.743200123E-2,-2.843400091E-2,9.014789039E-2
6.161139755E0,-4.451600090E-2,8.925600350E-2,-2.131300047E-2,1.019929041E-1
6.166151219E0,-2.771900035E-2,9.425800294E-2,4.867000040E-3,9.836971987E-2
6.171162832E0,9.073999710E-3,7.816900313E-2,4.052000120E-2,8.851328159E-2
6.176174306E0,3.522599861E-2,6.007299945E-2,7.132200152E-2,9.968181450E-2
6.181185919E0,5.576699972E-2,2.617900074E-2,9.493900090E-2,1.131755814E-1
6.186197611E0,2.930900082E-2,-2.770400047E-2,9.001500160E-2,9.863685763E-2
6.191208998E0,1.061099954E-2,-4.765399918E-2,1.114910021E-1,1.217117106E-1
6.196220688E0,-7.466000039E-3,-5.088200048E-2,1.090890020E-1,1.206031902E-1
6.201232171E0,8.270000108E-4,-2.850800008E-2,6.596499681E-2,7.186633984E-2
6.206243784E0,1.844299957E-2,-1.843000017E-2,4.911899939E-2,5.561011815E-2
6.211255176E0,3.572199866E-2,2.749999985E-3,9.679800272E-2,1.032156820E-1
6.216266866E0,2.479100041E-2,-4.676000215E-3,1.540980041E-1,1.561494590E-1
6.221278330E0,1.233000029E-2,6.850999780E-3,1.324930042E-1,1.332417400E-1
6.226289933E0,2.963999985E-3,2.064800076E-2,6.786400080E-2,7.099751993E-2
6.231301626E0,-1.984800026E-2,4.146699980E-2,-5.891399831E-2,7.472827031E-2
6.236313012E0,-3.503299877E-2,4.821399972E-2,-1.617060006E-1,1.723390014E-1
6.241324703E0,-4.084699973E-2,3.186099976E-2,-1.998510063E-1,2.064558679E-1
6.246336166E0,-4.261099920E-2,2.740699984E-2,-1.590979993E-1,1.669701000E-1
6.251347779E0,-5.680600181E-2,-5.191999953E-3,-3.220099956E-2,6.550406917E-2
6.256359233E0,-4.321600124E-2,-3.515800089E-2,1.137769967E-1,1.266843036E-1
6.261370846E0,-3.462100029E-2,-5.320899934E-2,2.166620046E-1,2.257703158E-1
6.266382325E0,-1.415299997E-2,-4.574700072E-2,2.572709918E-1,2.616896228E-1
6.271393938E0,-3.788900003E-2,-7.141199708E-2,2.621159852E-1,2.742991785E-1
6.276405631E0,-8.363699913E-2,-6.643100083E-2,2.240200043E-1,2.481797490E-1
6.281417089E0,-1.348270029E-1,-8.030200005E-2,1.813019961E-1,2.397856245E-1
6.286428703E0,-1.518999934E-1,-7.536499947E-2,1.362230033E-1,2.175090751E-1
6.291440166E0,-1.265960038E-1,-4.272900149E-2,1.029840037E-1,1.686950526E-1
6.296451809E0,-6.265000254E-2,1.463699993E-2,7.904099673E-2,1.019153754E-1
6.301463272E0,2.957800031E-2,8.684899658E-2,4.276699945E-2,1.012256023E-1
6.306474881E0,9.575399756E-2,1.526879966E-1,3.819999984E-3,1.802693672E-1
6.311486344E0,1.319130063E-1,1.914959997E-1,-2.809900045E-2,2.342249196E-1
6.316498038E0,1.924010068E-1,2.088290006E-1,-9.846100211E-2,3.005366331E-1
6.321509656E0,2.604160011E-1,1.824370027E-1,-1.975879967E-1,3.743538032E-1
6.326521117E0,2.171770036E-1,1.162599996E-1,-2.700780034E-1,3.655466678E-1
6.331532731E0,1.495220065E-1,3.677799925E-2,-2.895460129E-1,3.279425944E-1
6.336544204E0,1.043960005E-1,-1.185899973E-2,-2.394029945E-1,2.614439798E-1
6.341555818E0,1.387570053E-1,-9.944999591E-3,-1.367429942E-1,1.950667988E-1
6.346567281E0,1.759119928E-1,1.738500036E-2,-3.186000045E-3,1.767976754E-1
6.351578957E0,1.722220033E-1,5.522000045E-2,1.039490029E-1,2.086026416E-1
6.356590343E0,1.246130019E-1,4.508100078E-2,1.753129959E-1,2.197620154E-1
6.361602034E0,6.727299839E-2,1.847299933E-2,2.277279943E-1,2.381741955E-1
6.366613649E0,4.001700133E-2,2.229700051E-2,2.610650063E-1,2.650536816E-1
6.371625117E0,5.001999903E-3,2.797999978E-2,2.227209955E-1,2.245273753E-1
6.376636731E0,-2.603700012E-2,3.992800042E-2,1.844380051E-1,1.904981583E-1
6.381648180E0,-4.628000036E-2,3.279199824E-2,1.342899948E-1,1.457770774E-1
6.386659794E0,-8.419100195E-2,1.887499914E-2,7.949499786E-2,1.173194148E-1
6.391671257E0,-1.160669997E-1,-1.081600040E-2,4.400499910E-2,1.245992546E-1
6.396682943E0,-1.098849997E-1,-3.263900056E-2,3.486499935E-2,1.198147975E-1
6.401694560E0,-9.690900147E-2,-4.908400029E-2,5.205899850E-2,1.204605038E-1
6.406706022E0,-7.303199917E-2,-8.117599785E-2,8.360099792E-2,1.375221523E-1
6.411717619E0,-3.837300092E-2,-9.602600336E-2,1.031199992E-1,1.460384016E-1
6.416729083E0,-2.345700003E-2,-1.267479956E-1,1.322250068E-1,1.846584351E-1
6.421740788E0,-1.837600023E-2,-1.450369954E-1,1.469859928E-1,2.073120583E-1
6.426752175E0,-1.339500025E-2,-1.559569985E-1,1.521829963E-1,2.183155417E-1
6.431763788E0,1.714299992E-2,-1.526950002E-1,1.357759982E-1,2.050482071E-1
6.436775489E0,3.087499924E-2,-1.332689971E-1,8.582600206E-2,1.614930147E-1
6.441786953E0,2.357899956E-2,-1.190809980E-1,4.306599870E-2,1.288057978E-1
6.446798581E0,9.708999656E-3,-1.097899973E-1,-4.437000025E-3,1.103077294E-1
6.451810045E0,-1.069600042E-2,-7.965999842E-2,-5.432999879E-2,9.701478517E-2
6.456821648E0,-1.666500047E-2,-4.562399909E-2,-8.034899831E-2,9.388947259E-2
6.461833112E0,-2.048899978E-2,-2.178799920E-2,-7.771699876E-2,8.327333257E-2
6.466844802E0,-4.298799857E-2,5.975999869E-3,-5.596400052E-2,7.082125352E-2
6.471856424E0,-5.581700057E-2,7.331000175E-3,-1.028100029E-2,5.722744169E-2
6.476867809E0,-5.916599929E-2,1.315299980E-2,2.101499960E-2,6.415019162E-2
6.481879489E0,-6.952200085E-2,1.853499934E-2,5.707899854E-2,9.184153133E-2
6.486890953E0,-6.825400144E-2,1.428299956E-2,8.354000002E-2,1.088188605E-1
6.491902566E0,-6.958100200E-2,9.851999581E-3,8.365099877E-2,1.092523104E-1
6.496914250E0,-5.933799967E-2,1.011299994E-2,9.329699725E-2,1.110297288E-1
6.501925636E0,-4.258599877E-2,2.168999985E-2,8.608900011E-2,9.846491418E-2
6.506937083E0,-2.179599926E-2,2.339000069E-2,5.965900049E-2,6.768570052E-2
6.511948696E0,-4.184000194E-3,2.480299957E-2,5.946499854E-2,6.456609557E-2
6.516960160E0,1.061000046E-3,2.131300047E-2,8.076799661E-2,8.353944569E-2
6.521971850E0,8.244999684E-3,1.748399995E-2,1.259420067E-1,1.274168722E-1
6.526983467E0,2.903999947E-2,8.786000311E-3,1.758359969E-1,1.784343385E-1
6.531994929E0,3.522799909E-2,9.293000214E-3,2.304710001E-1,2.333329245E-1
6.537006542E0,4.831099883E-2,2.340799943E-2,2.682819963E-1,2.736002861E-1
6.542018250E0,7.985299826E-2,2.753300034E-2,2.629419863E-1,2.761757694E-1
6.547029636E0,1.457329988E-1,5.936300009E-2,2.334830016E-1,2.815606236E-1
6.552041327E0,1.890120059E-1,8.570399880E-2,1.943279952E-1,2.843133544E-1
6.557052790E0,1.684170067E-1,8.811900020E-2,1.241279989E-1,2.270176347E-1
6.562064404E0,1.183300018E-1,7.912299782E-2,7.323800027E-2,1.600819877E-1
6.567075867E0,1.164370030E-1,8.931700140E-2,1.759300008E-2,1.477992424E-1
6.572087252E0,1.447429955E-1,8.569099754E-2,-3.807700053E-2,1.724625750E-1
6.577098961E0,1.324989945E-1,8.249200135E-2,-7.695499808E-2,1.740200723E-1
6.582110576E0,7.847899944E-2,4.249899834E-2,-7.734800130E-2,1.181009378E-1
6.587122040E0,4.648000002E-3,-7.784000132E-3,-4.639299959E-2,4.727055080E-2
6.592133653E0,-5.795300007E-2,-5.191300064E-2,-2.958099917E-2,8.323788419E-2
6.597145117E0,-7.239100337E-2,-6.232700124E-2,8.802999742E-3,9.593021035E-2
6.602156812E0,-1.004209965E-1,-7.945799828E-2,2.813299932E-2,1.311084120E-1
6.607168430E0,-1.134729981E-1,-8.459399641E-2,2.118900046E-2,1.431126803E-1
6.612179887E0,-1.118500009E-1,-6.865099818E-2,2.859400027E-2,1.343167864E-1
6.617191501E0,-1.099499986E-1,-6.936100125E-2,4.559899867E-2,1.377650876E-1
6.622202968E0,-1.123360023E-1,-7.471299917E-2,5.068799853E-2,1.441203762E-1
6.627214582E0,-8.194299787E-2,-7.054299861E-2,4.375600070E-2,1.166428616E-1
6.632226036E0,-2.681500092E-2,-5.953500047E-2,2.471899986E-2,6.981754443E-2
6.637237726E0,7.307499647E-2,-3.027799912E-2,3.410400078E-2,8.613823314E-2
6.642249354E0,1.188149974E-1,-2.043800056E-2,3.857700154E-2,1.265815963E-1
6.647260815E0,1.002350003E-1,-8.762000129E-3,8.131899685E-2,1.293700397E-1
6.652272429E0,9.591799974E-2,-2.330000047E-3,1.264189929E-1,1.587055555E-1
6.657283877E0,1.218710020E-1,1.018999959E-3,1.809830070E-1,2.181935570E-1
6.662295491E0,1.054899991E-1,2.483100072E-2,1.781010032E-1,2.084818597E-1
6.667306954E0,6.689299643E-2,3.822200000E-2,1.513559967E-1,1.698358973E-1
6.672318578E0,-4.617999773E-3,3.488299996E-2,1.224339977E-1,1.273900836E-1
6.677330270E0,-6.583400071E-2,1.096200012E-2,9.140799940E-2,1.131799605E-1
6.682341748E0,-8.929199725E-2,6.777999923E-3,5.522000138E-3,8.971897537E-2
6.687353361E0,-8.798599988E-2,-1.210000017E-3,-1.161269993E-1,1.456999665E-1
6.692365053E0,-1.157379970E-1,-3.784700111E-2,-3.212090135E-1,3.435155161E-1
6.697376527E0,-1.535030007E-1,-9.297999740E-2,-4.876469970E-1,5.196229833E-1
6.702387911E0,-1.789530069E-1,-1.594569981E-1,-5.102630258E-1,5.637544398E-1
6.707399525E0,-1.358990073E-1,-1.683530062E-1,-3.057770133E-1,3.745809082E-1
6.712410988E0,-4.332299903E-2,-1.360020041E-1,-1.808200032E-2,1.438762875E-1
6.717422602E0,1.021189988E-1,-6.850499660E-2,2.377550006E-1,2.676726822E-1
6.722434065E0,2.093070000E-1,3.236999968E-3,3.877429962E-1,4.406410439E-1
6.727445751E0,2.457980067E-1,3.995700181E-2,3.652490079E-1,4.420634116E-1
6.732457368E0,2.190220058E-1,7.547999918E-2,2.063859999E-1,3.102628728E-1
6.737468816E0,1.938059926E-1,1.006959975E-1,5.238100141E-2,2.245978984E-1
6.742480429E0,1.818470061E-1,1.066149995E-1,-6.563899666E-2,2.207794592E-1
6.747491893E0,1.453830004E-1,7.075600326E-2,-1.523270011E-1,2.221399200E-1
6.752503491E0,1.035860032E-1,1.518400013E-2,-1.861120015E-1,2.135375635E-1
6.757514955E0,4.703100026E-2,-3.652999923E-2,-1.167619973E-1,1.310714303E-1
6.762526568E0,2.477500029E-2,-7.546799630E-2,2.952999901E-3,7.948546605E-2
6.767538046E0,-8.391000330E-3,-7.436800003E-2,1.585920006E-1,1.753637105E-1
6.772549737E0,-4.252399877E-2,-6.679099798E-2,2.592450082E-1,2.710669699E-1
6.777561344E0,-6.817000359E-2,-6.661000103E-2,2.403309941E-1,2.585401871E-1
6.782572806E0,-1.042300016E-1,-5.482299998E-2,1.521099955E-1,1.923717892E-1
6.787584413E0,-1.065229997E-1,-3.842100129E-2,2.800299972E-2,1.166511500E-1
6.792596105E0,-8.095099777E-2,3.518000012E-3,-6.510700285E-2,1.039440339E-1
6.797607574E0,-3.789100051E-2,4.713400081E-2,-1.344570071E-1,1.474314373E-1
6.802619187E0,-3.405000083E-3,8.072999865E-2,-1.560799927E-1,1.757552014E-1
6.807630646E0,-1.669700071E-2,9.532699734E-2,-1.465789974E-1,1.756457478E-1
6.812642259E0,-2.535399981E-2,7.977599651E-2,-7.241299748E-2,1.106827770E-1
6.817653723E0,-2.458699979E-2,7.417999953E-2,-1.976899989E-2,8.061021179E-2
6.822665345E0,7.759699970E-2,1.101450026E-1,-5.534340143E-1,5.695984763E-1
6.827676809E0,-8.041500300E-2,6.083099917E-2,-4.906480014E-1,5.009016315E-1
6.832688422E0,-1.559920013E-1,5.094400048E-2,-3.104459941E-1,3.511488444E-1
6.837700091E0,-1.010859981E-1,2.310599945E-2,-1.710969955E-1,2.000661093E-1
6.842711554E0,-6.809300184E-2,-2.492200024E-2,6.430000067E-3,7.279497165E-2
6.847723168E0,-8.152700216E-2,-6.986100227E-2,2.150499970E-1,2.403616295E-1
6.852734631E0,-7.676599920E-2,-1.029160023E-1,4.307790101E-1,4.495055925E-1
6.857746244E0,-6.505700201E-2,-1.363179982E-1,5.722929835E-1,5.918904199E-1
6.862757685E0,-2.254099958E-2,-1.329780072E-1,6.610329747E-1,6.746523851E-1
6.867769298E0,5.521500111E-2,-9.834799916E-2,6.323149800E-1,6.422953053E-1
6.872780762E0,1.323200017E-1,-5.399399996E-2,5.196350217E-1,5.389290219E-1
6.877792438E0,2.433809936E-1,-6.905000191E-3,3.372719884E-1,4.159740151E-1
6.882804056E0,3.519479930E-1,6.405500323E-2,1.617349982E-1,3.925922094E-1
6.887815531E0,4.042319953E-1,1.235409975E-1,4.580299929E-2,4.251632614E-1
6.892827222E0,4.318270087E-1,1.604270041E-1,1.542999991E-3,4.606666582E-1
6.897838594E0,4.352869987E-1,2.287130058E-1,-2.132800035E-2,4.921781120E-1
6.902850208E0,4.411160052E-1,2.906239927E-1,-6.104400009E-2,5.317631099E-1
6.907861666E0,4.051269889E-1,3.185519874E-1,-5.522599816E-2,5.183176214E-1
6.912873280E0,3.006579876E-1,3.365010023E-1,4.172899947E-2,4.531770730E-1
6.917884977E0,1.344660074E-1,2.956190109E-1,1.702159941E-1,3.666676853E-1
6.922896440E0,-4.534000158E-2,2.044740021E-1,2.250480056E-1,3.074279397E-1
6.927908068E0,-1.923280060E-1,1.199219972E-1,2.874520123E-1,3.660601135E-1
6.932919531E0,-2.352270037E-1,3.245700151E-2,2.782849967E-1,3.658247390E-1
6.937931135E0,-2.275300026E-1,-4.564100131E-2,1.352899969E-1,2.686194080E-1
6.942942598E0,-1.315531015E0,-4.470309913E-1,6.841160059E-1,1.548700510E0
6.947954212E0,-9.996150136E-1,-5.381169915E-1,3.257049918E-1,1.181051994E0
6.952965670E0,-5.606520176E-1,-3.678280115E-1,-3.851899877E-2,6.716486017E-1
6.957977284E0,-3.616789877E-1,-2.109690011E-1,-1.784639955E-1,4.551582222E-1
