"Time (s)","Linear Acceleration x (m/s^2)","Linear Acceleration y (m/s^2)","Linear Acceleration z (m/s^2)","Absolute acceleration (m/s^2)"
3.921709300E-2,5.603799969E-2,1.189999981E-3,2.118850052E-1,2.191732852E-1
4.422870300E-2,3.629000112E-2,-3.451900184E-2,1.472740024E-1,1.555575696E-1
4.924016600E-2,3.367799893E-2,-4.173000157E-2,4.916400090E-2,7.275094245E-2
5.425154700E-2,2.472100034E-2,-5.128600076E-2,-4.415600002E-2,7.204952512E-2
5.926316000E-2,1.187600009E-2,-3.722999990E-2,-9.440100193E-2,1.021697677E-1
6.427461900E-2,-4.916000180E-3,-2.562100068E-2,-1.159290001E-1,1.188281776E-1
6.928623200E-2,-2.804099955E-2,-7.102000061E-3,-8.959099650E-2,9.414500898E-2
7.429769500E-2,-5.303400010E-2,-7.280999795E-3,-5.368399993E-2,7.581286152E-2
7.930930800E-2,-8.002600074E-2,-7.267000154E-3,-1.059400011E-2,8.105061951E-2
8.432076700E-2,-9.283299744E-2,-1.403199974E-2,2.531399950E-2,9.724022317E-2
8.933238000E-2,-8.705499768E-2,-2.755500004E-2,4.446899891E-2,1.015644747E-1
9.434383000E-2,-9.329599887E-2,-3.602899984E-2,4.687400162E-2,1.104509134E-1
9.935544300E-2,-9.244800359E-2,-4.901200160E-2,5.167099833E-2,1.166991934E-1
1.043668200E-1,-9.841600060E-2,-5.934499949E-2,6.843400002E-2,1.337563101E-1
1.093782790E-1,-8.314099908E-2,-6.722799689E-2,8.759099990E-2,1.382179893E-1
1.143898850E-1,-6.826099753E-2,-6.791099906E-2,8.760099858E-2,1.301745080E-1
1.194013480E-1,-4.673599824E-2,-7.339499891E-2,7.803799957E-2,1.168803182E-1
1.244129720E-1,-1.669000089E-2,-7.186999917E-2,8.282600343E-2,1.109233959E-1
1.294244350E-1,-6.227000151E-3,-6.592600048E-2,6.129200011E-2,9.023149310E-2
1.344360440E-1,1.993799955E-2,-4.402900115E-2,2.300300077E-2,5.352770135E-2
1.394474300E-1,2.412999980E-2,-3.451399878E-2,1.103399973E-2,4.353414926E-2
1.444588900E-1,2.807700075E-2,-4.146999866E-2,-9.360000258E-4,5.008946851E-2
1.494705000E-1,4.118999932E-3,-3.423200175E-2,-2.725799941E-2,4.395218579E-2
1.544819640E-1,-1.447699964E-2,-2.941199951E-2,-1.529099979E-2,3.617269562E-2
1.594935480E-1,-6.250499934E-2,-5.929999985E-3,-1.287900005E-2,6.409296751E-2
1.645049350E-1,-7.182099670E-2,-3.926000092E-3,-3.917999938E-2,8.190690689E-2
1.695163840E-1,-6.459499896E-2,4.529999860E-4,-7.026699930E-2,9.544721206E-2
1.745280000E-1,-6.472299993E-2,-2.070299909E-2,-8.221600205E-2,1.066637327E-1
1.795394390E-1,-6.043599918E-2,-2.015700005E-2,-1.013460010E-1,1.197072536E-1
1.845510530E-1,-4.266599938E-2,-1.016500033E-2,-8.219599724E-2,9.316596319E-2
1.895624970E-1,-2.568200044E-2,-4.931999836E-3,-5.348100141E-2,5.953240530E-2
1.945741110E-1,-2.259999979E-3,-1.597899944E-2,-1.998800039E-2,2.568961235E-2
1.995855740E-1,1.104700007E-2,3.659999929E-3,8.715000004E-3,1.453901768E-2
2.045971780E-1,2.877099998E-2,1.825000043E-3,3.981000185E-2,4.915218523E-2
2.096085640E-1,4.608400166E-2,-7.400000322E-5,4.218599945E-2,6.247718972E-2
2.146200190E-1,5.597399920E-2,-8.882000111E-3,3.977400064E-2,6.923835382E-2
2.196316340E-1,5.634300038E-2,-8.201000281E-3,3.736399859E-2,6.810182441E-2
2.246430980E-1,7.765000314E-2,1.084499992E-2,2.059400082E-2,8.106324617E-2
2.296547880E-1,9.831500053E-2,2.003400028E-2,1.099999994E-2,1.009366162E-1
2.346661660E-1,9.734699875E-2,1.953900047E-2,-8.162000217E-3,9.962343576E-2
2.396777790E-1,8.480300009E-2,1.203699969E-2,-3.395000007E-3,8.572026721E-2
2.446891750E-1,7.263500243E-2,-2.321999986E-3,-3.410999896E-3,7.275211463E-2
2.497006340E-1,7.695800066E-2,-7.085999940E-3,8.537000045E-3,7.775362133E-2
2.547122500E-1,6.502400339E-2,-1.634800062E-2,2.287999913E-2,7.084400116E-2
2.597237080E-1,4.660400003E-2,-1.140500046E-2,2.765600011E-2,5.537924879E-2
2.647353220E-1,3.123600036E-2,-1.815400086E-2,4.679200053E-2,5.911638334E-2
2.697468000E-1,1.644599997E-2,-1.077200007E-2,6.832599640E-2,7.109816231E-2
2.747584140E-1,2.072799951E-2,3.412999911E-3,7.310900092E-2,7.606723702E-2
2.797697950E-1,8.631999604E-3,-3.655999899E-3,7.310800254E-2,7.370656544E-2
2.847812550E-1,6.184999831E-3,-1.277699973E-2,6.114099920E-2,6.276725044E-2
2.897928650E-1,-1.475800015E-2,-3.085100092E-2,5.635600165E-2,6.592102660E-2
2.948043290E-1,-2.126600035E-2,-5.993000045E-2,4.438700154E-2,7.755032967E-2
2.998159280E-1,-3.674700111E-2,-6.712800264E-2,5.635099858E-2,9.503655018E-2
3.048273920E-1,-5.641499907E-2,-6.482700258E-2,8.028300107E-2,1.176033700E-1
3.098390050E-1,-5.931499973E-2,-6.259900331E-2,1.066100001E-1,1.371225603E-1
3.148503920E-1,-5.754100159E-2,-5.835400149E-2,9.225799888E-2,1.234005458E-1
3.198618510E-1,-3.514700010E-2,-6.149400026E-2,3.004400060E-2,7.693806376E-2
3.248734670E-1,-1.674599946E-2,-7.208900154E-2,-6.089299917E-2,9.583950119E-2
3.298851540E-1,3.934499994E-2,-4.613399878E-2,-9.202100337E-2,1.102009071E-1
3.348965410E-1,9.563499689E-2,1.637000008E-3,-7.768899947E-2,1.232246446E-1
3.399079390E-1,1.321569979E-1,3.387400135E-2,1.321899984E-2,1.370680927E-1
3.449196300E-1,1.296730042E-1,8.192999661E-2,1.855030060E-1,2.407051673E-1
3.499310930E-1,4.552400112E-2,9.454199672E-2,2.573040128E-1,2.778776328E-1
3.549427270E-1,-5.566899851E-2,7.729899883E-2,2.166509926E-1,2.366681754E-1
3.599541900E-1,-1.093479991E-1,4.475700110E-2,1.042170003E-1,1.575479521E-1
3.649655750E-1,-1.131049991E-1,-5.218000151E-3,6.136000156E-3,1.133914408E-1
3.699771920E-1,-1.058960035E-1,-3.750599921E-2,-4.887799919E-2,1.225141720E-1
3.749886560E-1,-6.712599844E-2,-5.055300146E-2,-7.040199637E-2,1.096263961E-1
3.800002690E-1,-3.000099957E-2,-3.803899884E-2,-1.015039980E-1,1.124726057E-1
3.850117380E-1,2.687999979E-2,-2.852700092E-2,-1.350080073E-1,1.405826668E-1
3.900233510E-1,7.292500138E-2,-1.252899971E-2,-1.709090024E-1,1.862388756E-1
3.950348150E-1,1.132730022E-1,1.011299994E-2,-2.044219971E-1,2.339260539E-1
4.000462090E-1,1.178819984E-1,3.235400096E-2,-2.307509929E-1,2.611301738E-1
4.050578990E-1,1.015359983E-1,6.379099935E-2,-2.140029967E-1,2.453082411E-1
4.100693000E-1,5.756000057E-2,6.937000155E-2,-1.541769952E-1,1.785942234E-1
4.150809130E-1,2.853900008E-2,7.302799821E-2,-7.281500101E-2,1.070027449E-1
4.200923960E-1,2.400000085E-5,5.381900072E-2,2.050900087E-2,5.759430989E-2
4.251037810E-1,-9.316000156E-3,3.079799935E-2,7.554300129E-2,8.210998519E-2
4.301154950E-1,-1.618199982E-2,1.564000035E-3,1.114299968E-1,1.126097127E-1
4.351268820E-1,-2.284700051E-2,-3.388499841E-2,1.209919974E-1,1.277076426E-1
4.401384810E-1,-1.746100001E-2,-6.601800025E-2,1.090160012E-1,1.286380636E-1
4.451499450E-1,-1.670099981E-2,-8.809100091E-2,1.185770035E-1,1.486588497E-1
4.501615720E-1,5.047999788E-3,-9.331899881E-2,1.424939930E-1,1.704067366E-1
4.551730360E-1,6.040000007E-4,-9.638100117E-2,1.879509985E-1,2.112231996E-1
4.601846400E-1,-8.411999792E-3,-8.327499777E-2,1.807669997E-1,1.992039035E-1
4.651961030E-1,8.143000305E-3,-5.692299828E-2,1.664029956E-1,1.760582095E-1
4.702077210E-1,5.456000101E-3,-2.688599937E-2,1.400779933E-1,1.427391646E-1
4.752191840E-1,3.047399968E-2,-2.684999956E-3,9.221199900E-2,9.715413857E-2
4.802307980E-1,3.843799978E-2,2.751000039E-2,3.238200024E-2,5.729636889E-2
4.852421840E-1,4.616300017E-2,2.887599915E-2,-2.983899973E-2,6.209035204E-2
4.902536440E-1,5.841499940E-2,4.875899851E-2,-6.574100256E-2,1.005566085E-1
4.952652590E-1,4.256900027E-2,5.892999843E-2,-9.206499904E-2,1.173065580E-1
5.002767230E-1,3.410400078E-2,5.962999910E-2,-9.206700325E-2,1.148701560E-1
5.052883270E-1,2.595300041E-2,5.353200063E-2,-6.574700028E-2,8.866736360E-2
5.102997910E-1,1.798599958E-2,5.244499817E-2,-3.463999927E-2,6.537509896E-2
5.153111850E-1,1.477800030E-2,4.455500096E-2,-5.927000195E-3,4.731455098E-2
5.203227980E-1,1.386400033E-2,2.298199944E-2,3.474799916E-2,4.390679047E-2
5.253342610E-1,1.993799955E-2,4.379999824E-3,7.302899659E-2,7.582837574E-2
5.303458900E-1,3.047299944E-2,-1.604700089E-2,8.977100253E-2,9.615062573E-2
5.353573530E-1,1.985899918E-2,-2.670099959E-2,1.089069992E-1,1.138773801E-1
5.403689570E-1,2.825400047E-2,-2.787099965E-2,1.136849970E-1,1.204132871E-1
5.453804200E-1,6.455999799E-3,-2.918599918E-2,1.136820018E-1,1.175461612E-1
5.503920340E-1,4.120999947E-3,-2.593900077E-2,1.160729975E-1,1.190073743E-1
5.554035110E-1,8.882000111E-3,-1.124100015E-2,8.975099772E-2,9.088724664E-2
5.604148960E-1,-2.626999980E-3,-8.709000424E-3,7.778800279E-2,7.831807707E-2
5.654265860E-1,-4.505000077E-3,-1.089600008E-2,5.864600092E-2,5.981948903E-2
5.704379730E-1,-1.746000024E-3,-1.998200081E-2,6.821899861E-2,7.110668495E-2
5.754495710E-1,-3.831000067E-3,-3.575899825E-2,5.625300109E-2,6.676662826E-2
5.804610350E-1,-6.035000086E-3,-3.939900175E-2,7.300099730E-2,8.317360262E-2
5.854724190E-1,1.051999978E-3,-3.840700164E-2,5.864299834E-2,7.010852825E-2
5.904841000E-1,7.927999832E-3,-2.827800065E-2,5.864100158E-2,6.558403440E-2
5.954954860E-1,2.388500050E-2,-1.386899967E-2,4.906500131E-2,5.630467790E-2
6.005071000E-1,3.954400122E-2,4.629000090E-3,2.991900034E-2,4.980263302E-2
6.055187870E-1,5.020900071E-2,2.501199953E-2,5.989000201E-3,5.641287084E-2
6.105302510E-1,6.067100167E-2,3.781599924E-2,-1.076400001E-2,7.229719178E-2
6.155416210E-1,6.153399870E-2,6.665799767E-2,-2.033600025E-2,9.296921294E-2
6.205532350E-1,5.760600045E-2,5.523300171E-2,-3.469400108E-2,8.702189079E-2
6.255646350E-1,3.951299936E-2,3.725000098E-2,-3.230199963E-2,6.318432457E-2
6.305763260E-1,4.737500101E-2,2.689900063E-2,1.315900031E-2,5.604557293E-2
6.355877030E-1,2.000400051E-2,2.394899912E-2,6.101600081E-2,6.853223293E-2
6.405991650E-1,-1.834399998E-2,1.645299979E-2,1.328040063E-1,1.350707505E-1
6.456108550E-1,-3.264100105E-2,9.062999859E-3,1.639119983E-1,1.673759723E-1
6.506222510E-1,-4.687099904E-2,8.615000173E-3,1.447699964E-1,1.524121407E-1
6.556338640E-1,-6.096100062E-2,-3.853000002E-3,7.537899911E-2,9.702104263E-2
6.606453280E-1,-4.942899942E-2,-7.211000193E-3,-2.990699932E-2,5.822072755E-2
6.656567080E-1,-1.044400036E-2,-1.494999975E-3,-1.447660029E-1,1.451499492E-1
6.706683220E-1,2.038899995E-2,-2.981000114E-3,-2.333050072E-1,2.342132022E-1
6.756797800E-1,3.183599934E-2,9.782999754E-3,-2.931289971E-1,2.950149943E-1
6.806913940E-1,4.987899959E-2,2.043100074E-2,-3.027009964E-1,3.074625727E-1
6.857028570E-1,3.923900053E-2,2.457899973E-2,-2.620239854E-1,2.660834367E-1
6.907144850E-1,3.302700073E-2,5.032800138E-2,-1.926310062E-1,2.018177273E-1
6.957259480E-1,2.635000087E-2,4.825700074E-2,-9.931199998E-2,1.135162279E-1
7.007375620E-1,1.005700044E-2,3.288900107E-2,8.363000117E-3,3.539448291E-2
7.057490250E-1,-1.056899969E-2,1.139300037E-2,1.088590026E-1,1.099626603E-1
7.107606490E-1,-1.897400059E-2,-1.404500008E-2,1.806389987E-1,1.821749780E-1
7.157721120E-1,-1.986400038E-2,-3.182899952E-2,2.260980010E-1,2.291898117E-1
7.207834970E-1,-8.690999821E-3,-5.630400032E-2,2.667729855E-1,2.727883790E-1
7.257950860E-1,2.637000056E-3,-6.655000150E-2,2.787359953E-1,2.865826435E-1
7.308065500E-1,1.876199991E-2,-8.620999753E-2,2.739500105E-1,2.878068529E-1
7.358181630E-1,3.232999891E-2,-9.189300239E-2,2.452390045E-1,2.638782334E-1
7.408296270E-1,3.400199860E-2,-9.549900144E-2,2.117449939E-1,2.347597445E-1
7.458412400E-1,3.800100088E-2,-7.386700064E-2,1.782529950E-1,1.966584351E-1
7.508526270E-1,3.258400038E-2,-5.786899850E-2,1.280120015E-1,1.442137670E-1
7.558640760E-1,3.428899869E-2,-3.097499907E-2,9.930799901E-2,1.095320258E-1
7.608756920E-1,2.902900055E-2,-2.357199974E-2,5.624800175E-2,6.754376171E-2
7.658871700E-1,1.946100034E-2,-1.871000044E-2,4.190000147E-2,4.984380376E-2
7.708987840E-1,1.047699992E-2,-6.909000222E-3,2.755000070E-2,3.027382285E-2
7.759102420E-1,-3.199999919E-4,-4.627000075E-3,6.020000204E-3,7.599469202E-3
7.809218550E-1,-2.448000014E-2,-1.151600014E-2,-1.551400032E-2,3.118610062E-2
7.859332420E-1,-2.458400093E-2,-2.027699910E-2,-2.508500032E-2,4.055597410E-2
7.909449320E-1,-2.706700005E-2,-2.394999936E-2,-3.944199905E-2,5.349669382E-2
7.959563960E-1,-3.197500110E-2,-2.049000002E-2,-3.704800084E-2,5.305464318E-2
8.009677810E-1,-2.757100016E-2,-2.855800092E-2,-2.268799953E-2,4.572160090E-2
8.059794710E-1,-1.877599955E-2,-1.293499954E-2,-8.325999603E-3,2.427291992E-2
8.109908580E-1,-2.423099987E-2,4.716999829E-3,6.035000086E-3,2.541284455E-2
8.160024750E-1,-2.255699970E-2,1.517799962E-2,1.800299995E-2,3.260824919E-2
8.210139380E-1,-2.241000067E-3,3.014799953E-2,4.193900153E-2,5.169916640E-2
8.260255520E-1,3.658999922E-3,3.330399841E-2,4.433999956E-2,5.557499574E-2
8.310370150E-1,1.873099990E-2,3.166199848E-2,5.631399900E-2,6.726513947E-2
8.360484150E-1,3.097499907E-2,2.304599993E-2,7.307799906E-2,8.264963779E-2
8.410600280E-1,4.047499970E-2,1.450600009E-2,8.505699784E-2,9.530657123E-2
8.460714920E-1,5.446000025E-2,8.361999877E-3,9.943100065E-2,1.136764644E-1
8.510830900E-1,5.880500004E-2,-2.362000057E-3,1.066310033E-1,1.217939980E-1
8.560945540E-1,6.307300180E-2,1.041000010E-3,8.750899881E-2,1.078754472E-1
8.611061820E-1,7.422000170E-2,4.166000057E-3,4.445900023E-2,8.661735917E-2
8.661176460E-1,6.865099818E-2,1.150000026E-4,1.576800086E-2,7.043864441E-2
8.711292590E-1,6.311000139E-2,2.397800051E-2,-2.967100032E-2,7.374405090E-2
8.761406460E-1,5.985999852E-2,3.307300061E-2,-6.314899772E-2,9.308511538E-2
8.811521050E-1,5.187400058E-2,4.182999954E-2,-9.183800220E-2,1.134675260E-1
8.861637210E-1,2.544800006E-2,5.252100155E-2,-8.703400195E-2,1.047901417E-1
8.911751740E-1,-3.450000077E-4,6.521199644E-2,-4.873400182E-2,8.141084963E-2
8.961867880E-1,-1.833499968E-2,6.603699923E-2,-3.197399899E-2,7.562667579E-2
9.011981880E-1,-2.875399962E-2,5.511699989E-2,1.531000016E-3,6.218536912E-2
9.062096480E-1,-3.867699951E-2,2.809800021E-2,1.589200087E-2,5.037820559E-2
9.112212630E-1,-4.365900159E-2,6.473999936E-3,1.350099966E-2,4.615515233E-2
9.162329320E-1,-2.979600057E-2,-7.658999879E-3,4.700500146E-2,5.617768321E-2
9.212443180E-1,-1.402200013E-2,-1.905000024E-2,6.615799665E-2,7.025951550E-2
9.262557800E-1,-7.876999676E-3,-2.313899994E-2,9.966900200E-2,1.026224654E-1
9.312673880E-1,-1.810000092E-2,-2.002399974E-2,1.212129965E-1,1.241819678E-1
9.362787750E-1,-1.390899997E-2,-5.332000088E-3,1.188260019E-1,1.197560405E-1
9.412902300E-1,-1.901599951E-2,-2.504999982E-3,8.772099763E-2,8.979341116E-2
9.463019230E-1,-9.932000190E-3,-6.603999995E-3,4.704799876E-2,4.853629189E-2
9.513133130E-1,-8.089000359E-3,-1.516200043E-2,2.312500030E-2,2.881117531E-2
9.563249270E-1,-1.333300024E-2,-1.637700014E-2,-7.974999957E-3,2.257378243E-2
9.613363900E-1,4.486999940E-3,-2.207599953E-2,-1.513899956E-2,2.714170649E-2
9.663479990E-1,5.282999948E-3,-2.063800022E-2,-2.229899913E-2,3.083962555E-2
9.713594620E-1,2.167900093E-2,-3.101900034E-2,-7.730399817E-2,8.607012023E-2
9.763710760E-1,3.401200101E-2,-4.166400060E-2,-1.753650010E-1,1.834273391E-1
9.813825440E-1,6.330599636E-2,-4.347699881E-2,-2.040069997E-1,2.179833813E-1
9.863941580E-1,1.098940000E-1,-2.019999921E-2,-1.991229951E-1,2.283302398E-1
9.914055440E-1,1.232990026E-1,2.776000090E-2,-3.870100155E-2,1.321780210E-1
9.964170040E-1,1.081150025E-1,7.960399985E-2,1.336559951E-1,1.894454423E-1
1.001428696E0,3.971999884E-2,1.121850014E-1,1.767430007E-1,2.130756700E-1
1.006440312E0,-2.970400080E-2,1.099599972E-1,8.817099780E-2,1.440404579E-1
1.011451674E0,-1.012310013E-1,5.981199816E-2,-1.000399981E-2,1.180053845E-1
1.016463136E0,-1.503069997E-1,2.557599917E-2,-9.382899851E-2,1.790257156E-1
1.021474759E0,-1.432189941E-1,-9.693999775E-3,-1.489190012E-1,2.068393648E-1
1.026486146E0,-1.073260009E-1,-2.300300077E-2,-1.776569933E-1,2.088301122E-1
1.031497605E0,-5.713300034E-2,-3.816200048E-2,-1.728609949E-1,1.860146273E-1
1.036509221E0,3.840000136E-4,-6.461000070E-3,-1.632550061E-1,1.633832580E-1
1.041520684E0,4.687200114E-2,-3.506999929E-3,-1.464509964E-1,1.538089005E-1
1.046532288E0,6.661699712E-2,2.279400080E-2,-1.176759973E-1,1.371314374E-1
1.051543751E0,6.514599919E-2,2.551300079E-2,-6.976000220E-2,9.879965752E-2
1.056555380E0,5.001400039E-2,1.238000020E-2,-3.100000031E-4,5.152437035E-2
1.061566843E0,2.615999989E-2,6.953000091E-3,1.002380028E-1,1.038284499E-1
1.066578457E0,2.610599995E-2,-1.666699909E-2,2.103700042E-1,2.126378394E-1
1.071589905E0,2.352399938E-2,-5.349500105E-2,2.798309922E-1,2.858679379E-1
1.076601290E0,-1.863300055E-2,-8.688899875E-2,3.301450014E-1,3.418956109E-1
1.081612903E0,-6.194199994E-2,-1.148030013E-1,3.517380059E-1,3.751481910E-1
1.086624382E0,-7.604700327E-2,-1.443140060E-1,3.805139959E-1,4.140055315E-1
1.091635995E0,-8.729699999E-2,-1.709659994E-1,3.973320127E-1,4.412741409E-1
1.096647463E0,-9.345500171E-2,-1.901140064E-1,3.854410052E-1,4.398203512E-1
1.101659076E0,-8.763600141E-2,-1.952479929E-1,3.807350099E-1,4.367619434E-1
1.106670526E0,-5.863599852E-2,-1.915220022E-1,3.521110117E-1,4.050938438E-1
1.111681910E0,-5.812099949E-2,-1.837850064E-1,3.330529928E-1,3.848107005E-1
1.116693543E0,-3.647999838E-2,-1.583140045E-1,2.924520075E-1,3.345478905E-1
1.121705006E0,-5.901999772E-3,-1.271110028E-1,2.279160023E-1,2.610320761E-1
1.126716620E0,1.701300032E-2,-9.730300307E-2,1.394409984E-1,1.708833188E-1
1.131728102E0,3.730300069E-2,-7.338699698E-2,5.334600061E-2,9.809669193E-2
1.136739715E0,6.180400029E-2,-3.411800042E-2,-5.189999938E-2,8.762067302E-2
1.141751102E0,7.654699683E-2,-7.699999842E-4,-1.069099978E-1,1.314906204E-1
1.146762792E0,7.468900084E-2,4.098000005E-2,-1.523659974E-1,1.745657596E-1
1.151774256E0,7.994499803E-2,7.468199730E-2,-1.810829937E-1,2.115647751E-1
1.156785646E0,7.806800306E-2,1.006940007E-1,-1.978430003E-1,2.353205211E-1
1.161797259E0,5.751100183E-2,1.284639984E-1,-1.954730004E-1,2.408738427E-1
1.166808733E0,2.813199908E-2,1.279039979E-1,-1.859290004E-1,2.274212726E-1
1.171820346E0,2.493700013E-2,1.298580021E-1,-1.668100059E-1,2.128627087E-1
1.176831794E0,2.613000013E-2,1.249089986E-1,-1.452880055E-1,1.933743504E-1
1.181843408E0,1.075700019E-2,1.133280024E-1,-1.237599999E-1,1.681531645E-1
1.186854862E0,1.193199959E-2,1.067959964E-1,-8.547499776E-2,1.373088952E-1
1.191866247E0,3.745000111E-3,9.117600322E-2,-5.197300017E-2,1.050156242E-1
1.196877884E0,-4.110000096E-3,7.614199817E-2,-4.112999886E-3,7.636368741E-2
1.201889348E0,-4.627999850E-3,6.387399882E-2,3.657000139E-2,7.374734646E-2
1.206900941E0,-4.199999967E-4,5.190899968E-2,5.093700066E-2,7.272756482E-2
1.211912405E0,1.475000056E-3,4.487799853E-2,8.444699645E-2,9.564259295E-2
1.216924018E0,1.110999961E-3,3.793700039E-2,7.727800310E-2,8.609494807E-2
1.221935482E0,8.159999852E-4,3.798799962E-2,7.489100099E-2,8.397866395E-2
1.226947095E0,1.219400018E-2,4.708300158E-2,7.010900229E-2,8.532745678E-2
1.231958554E0,3.255999833E-2,4.876599833E-2,3.901100159E-2,7.042822112E-2
1.236969938E0,3.598299995E-2,5.254599825E-2,7.360000163E-4,6.368987292E-2
1.241981528E0,4.386899993E-2,7.704299688E-2,-2.318499982E-2,9.163872948E-2
1.246993220E0,6.085800007E-2,8.449299634E-2,-2.317300066E-2,1.066759137E-1
1.252004684E0,7.281100005E-2,1.034390032E-1,-2.315999940E-2,1.285980353E-1
1.257016083E0,8.916600049E-2,1.148499995E-1,-2.075099945E-2,1.468730813E-1
1.262027468E0,7.503599674E-2,1.260309964E-1,-1.835300028E-2,1.478209914E-1
1.267039158E0,7.305599749E-2,1.253280044E-1,-1.356500015E-2,1.456993366E-1
1.272050769E0,7.108099759E-2,1.108369976E-1,-3.980999812E-3,1.317315324E-1
1.277062232E0,5.067300051E-2,7.814899832E-2,1.995399967E-2,9.525324678E-2
1.282073617E0,4.721000046E-2,6.976799667E-2,5.824900046E-2,1.024173011E-1
1.287085235E0,2.537699975E-2,4.549799860E-2,1.204679981E-1,1.312501374E-1
1.292096699E0,1.570999995E-2,4.509799927E-2,1.707160026E-1,1.772698146E-1
1.297108302E0,5.971000064E-3,3.523800150E-2,1.778949946E-1,1.814497140E-1
1.302119766E0,1.234299969E-2,3.001799993E-2,1.539770067E-1,1.573605686E-1
1.307131389E0,6.465999875E-3,1.989700086E-2,1.037409976E-1,1.058295534E-1
1.312142853E0,3.659999929E-4,1.889899932E-2,3.436199948E-2,3.921802060E-2
1.317154237E0,-1.504900027E-2,8.182000369E-3,-3.262899816E-2,3.685198855E-2
1.322165850E0,3.229999857E-4,1.838400029E-2,-7.569099963E-2,7.789225392E-2
1.327177313E0,-9.947000071E-3,1.888000034E-2,-1.020160019E-1,1.042240945E-1
1.332188927E0,-1.937399991E-2,1.240499970E-2,-1.187840030E-1,1.209912197E-1
1.337200371E0,-3.273300081E-2,-5.173999816E-3,-1.164169982E-1,1.210418815E-1
1.342211985E0,-4.561499879E-2,-1.960299909E-2,-9.730300307E-2,1.092377229E-1
1.347223376E0,-5.582800135E-2,-3.098700009E-2,-5.665000156E-2,8.535913885E-2
1.352235067E0,-5.911599845E-2,-4.875899851E-2,-2.316600084E-2,8.005501111E-2
1.357246483E0,-5.812200159E-2,-7.054100186E-2,2.947800048E-2,9.603724550E-2
1.362257945E0,-5.749100074E-2,-8.235900104E-2,1.012760028E-1,1.426360718E-1
1.367269562E0,-7.091700286E-2,-1.055729985E-1,1.347880065E-1,1.853177974E-1
1.372281026E0,-5.600300059E-2,-1.165769994E-1,1.826680005E-1,2.238171827E-1
1.377292639E0,-6.230000034E-2,-1.158389971E-1,2.066120058E-1,2.449254667E-1
1.382304089E0,-4.483199865E-2,-1.245210022E-1,1.898829937E-1,2.314539682E-1
1.387315473E0,-3.228599951E-2,-1.100210026E-1,1.851129979E-1,2.177471671E-1
1.392327164E0,-8.388999850E-3,-1.169549972E-1,1.636050045E-1,2.012844857E-1
1.397338798E0,1.494699996E-2,-9.834200144E-2,1.038149968E-1,1.437780081E-1
1.402350262E0,3.522500023E-2,-9.435500205E-2,3.924699873E-2,1.080925250E-1
1.407361875E0,5.931200087E-2,-7.884400338E-2,-2.291399986E-2,1.012884085E-1
1.412373329E0,6.390599906E-2,-7.068700343E-2,-4.917899892E-2,1.072343373E-1
1.417384714E0,7.744300365E-2,-5.104099959E-2,-7.304099947E-2,1.180575709E-1
1.422396337E0,6.261400133E-2,-3.175700083E-2,-5.623500049E-2,8.995218477E-2
1.427407800E0,5.967200175E-2,-1.514399983E-2,-3.464300185E-2,7.064153241E-2
1.432419413E0,5.452699959E-2,-1.184999943E-3,3.691999940E-3,5.466469403E-2
1.437430795E0,5.644699931E-2,1.008700021E-2,1.570600085E-2,5.945325699E-2
1.442442255E0,4.202700034E-2,4.701999947E-3,5.164200068E-2,6.674783738E-2
1.447453861E0,3.730199859E-2,-5.359999835E-3,1.043289974E-1,1.109265901E-1
1.452465325E0,2.827600017E-2,-8.290000260E-3,1.354680061E-1,1.386356266E-1
1.457476938E0,2.215100080E-2,-2.048600093E-2,1.498499960E-1,1.528573334E-1
1.462488387E0,1.876699924E-2,-2.553300001E-2,1.474760026E-1,1.508419891E-1
1.467500000E0,1.583899930E-2,-2.602400072E-2,1.403030008E-1,1.435724714E-1
1.472511463E0,1.554999966E-3,-2.899399959E-2,1.187589988E-1,1.222569828E-1
1.477522853E0,-4.640000116E-4,-3.204699978E-2,1.043870002E-1,1.091964803E-1
1.482534467E0,-2.448000014E-3,-2.362100035E-2,6.129299849E-2,6.573261006E-2
1.487545920E0,2.490000043E-4,-3.650600091E-2,3.016800061E-2,4.735882562E-2
1.492557533E0,-4.284999799E-3,-1.429800037E-2,1.339400001E-2,2.005475690E-2
1.497569016E0,-1.662999974E-3,-2.097999910E-3,8.581999689E-3,8.989877152E-3
1.502580629E0,-1.066800021E-2,1.664000005E-2,3.753999947E-3,2.011935251E-2
1.507592093E0,-1.690600067E-2,3.475699946E-2,-5.869000219E-3,3.909356768E-2
1.512603706E0,-2.980200015E-2,3.388199955E-2,-1.071699988E-2,4.637890892E-2
1.517615190E0,-2.594799921E-2,4.231699929E-2,-2.035100013E-2,5.364876791E-2
1.522626803E0,-1.770599931E-2,3.663599864E-2,-5.150900036E-2,6.564202866E-2
1.527638276E0,-7.379999734E-4,2.660799958E-2,-6.350299716E-2,6.885608857E-2
1.532649660E0,1.766999997E-2,4.020600021E-2,-7.069300115E-2,8.322410566E-2
1.537661274E0,4.205400124E-2,5.351100117E-2,-8.025299758E-2,1.052259943E-1
1.542672713E0,5.831800029E-2,5.486499891E-2,-7.782600075E-2,1.116603943E-1
1.547684327E0,6.664499640E-2,5.635499954E-2,-7.777400315E-2,1.169026821E-1
1.552695795E0,9.307000041E-2,5.791600049E-2,-4.658700153E-2,1.191076689E-1
1.557707409E0,7.694199681E-2,4.092000052E-2,-2.497700043E-2,9.065521423E-2
1.562718809E0,7.066400349E-2,1.300800033E-2,-9.710000013E-4,7.185786180E-2
1.567730269E0,6.249700114E-2,-2.459000098E-3,3.881999990E-3,6.266571437E-2
1.572741889E0,5.007399991E-2,-8.179999888E-3,2.787300013E-2,5.788974004E-2
1.577753353E0,4.744999856E-2,7.500000356E-5,5.424600095E-2,7.207035872E-2
1.582764966E0,2.204399928E-2,-8.177000098E-3,1.236699969E-1,1.258851435E-1
1.587776435E0,-4.418000113E-3,-7.085999940E-3,1.667370051E-1,1.669459763E-1
1.592788048E0,-3.431599960E-2,5.464000162E-3,1.786639988E-1,1.820117238E-1
1.597799512E0,-5.362100154E-2,-8.016999811E-3,1.809950024E-1,1.889409299E-1
1.602810896E0,-5.130700022E-2,-1.197700016E-2,1.187189966E-1,1.298847834E-1
1.607822587E0,-3.043399937E-2,-1.948000048E-3,1.067050025E-1,1.109773877E-1
1.612834192E0,-3.340400010E-2,-8.465999737E-3,9.947499633E-2,1.052747608E-1
1.617845656E0,-4.802700132E-2,-3.299999982E-3,7.548999786E-2,8.953336045E-2
1.622857045E0,-3.693500161E-2,-1.923299953E-2,4.194800183E-2,5.910784612E-2
1.627868736E0,-1.952300034E-2,-4.631000105E-3,2.277999930E-2,3.035658203E-2
1.632880351E0,1.689000055E-3,7.300000289E-5,-5.936999805E-3,6.173007118E-3
1.637891748E0,2.147099935E-2,-2.491000108E-3,-1.040169969E-1,1.062390914E-1
1.642903132E0,4.156700149E-2,-1.716499962E-2,-2.020500004E-1,2.069943369E-1
1.647914823E0,6.421700120E-2,4.943999927E-3,-2.282450050E-1,2.371582777E-1
1.652926295E0,8.085999638E-2,2.803100087E-2,-1.754440069E-1,1.952041895E-1
1.657937680E0,1.140239984E-1,6.417199969E-2,1.800999977E-3,1.308539696E-1
1.662949274E0,1.230780035E-1,1.414320022E-1,1.789979935E-1,2.592132093E-1
1.667960738E0,5.823500082E-2,1.755679995E-1,1.837850064E-1,2.607534589E-1
1.672972351E0,-1.395399962E-2,1.772920042E-1,2.574699931E-2,1.796943985E-1
1.677983829E0,-5.759799853E-2,1.521430016E-1,-1.706269979E-1,2.357511289E-1
1.682995442E0,-8.907499909E-2,7.990700006E-2,-2.856459916E-1,3.096984285E-1
1.688006906E0,-7.703199983E-2,3.594600037E-2,-3.216519952E-1,3.326951306E-1
1.693018262E0,-6.945300102E-2,9.945999831E-3,-2.762520015E-1,2.850224739E-1
1.698029876E0,-6.368000060E-2,-1.269000000E-3,-1.877380013E-1,1.982481021E-1
1.703041339E0,-4.042999819E-2,-1.231999975E-2,-8.961399645E-2,9.908095431E-2
1.708052943E0,-4.213000182E-3,-1.643300056E-2,-1.538900007E-2,2.290445811E-2
1.713064406E0,3.600399941E-2,-2.060200088E-2,2.056900039E-2,4.630134114E-2
1.718076020E0,5.944399908E-2,-3.429200128E-2,3.977999836E-2,7.932199347E-2
1.723087406E0,5.280900002E-2,-4.067099839E-2,6.614399701E-2,9.390393460E-2
1.728099105E0,2.843200043E-2,-5.865300074E-2,1.068340018E-1,1.251481406E-1
1.733110569E0,5.107999779E-3,-7.616599649E-2,1.451040059E-1,1.639589071E-1
1.738121954E0,-3.137600049E-2,-8.638100326E-2,1.809529960E-1,2.029534870E-1
1.743133654E0,-4.129200056E-2,-1.011219993E-1,1.928669959E-1,2.216491962E-1
1.748145041E0,-3.253800049E-2,-1.063700020E-1,1.569350064E-1,1.923587665E-1
1.753156649E0,-2.197200060E-2,-1.186029986E-1,1.401620060E-1,1.849184361E-1
1.758168113E0,-9.602000006E-3,-1.098010018E-1,1.018640026E-1,1.500824222E-1
1.763179726E0,2.286999952E-3,-1.060289964E-1,1.138309985E-1,1.555791589E-1
1.768191189E0,-2.489000093E-3,-1.071889997E-1,1.114379987E-1,1.546418583E-1
1.773202803E0,-4.726000130E-3,-9.921500087E-2,1.377580017E-1,1.698329135E-1
1.778214190E0,-9.092999622E-3,-7.760500163E-2,1.449259967E-1,1.646473912E-1
1.783225630E0,7.370000239E-4,-7.301300019E-2,1.688479930E-1,1.839594687E-1
1.788237245E0,-1.289299969E-2,-4.086799920E-2,1.544750035E-1,1.603089190E-1
1.793248709E0,-9.817999788E-3,-3.319200128E-2,1.353150010E-1,1.396719427E-1
1.798260399E0,-1.149799954E-2,-2.597999945E-2,1.041920036E-1,1.079960091E-1
1.803271786E0,3.084999975E-3,4.052000120E-3,4.915200174E-2,4.941513133E-2
1.808283399E0,1.951799914E-2,5.210000090E-3,1.304000034E-3,2.024343863E-2
1.813294849E0,4.238500074E-2,2.483499981E-2,-4.173700139E-2,6.446117272E-2
1.818306462E0,4.589499906E-2,4.171799868E-2,-8.955799788E-2,1.089374928E-1
1.823317849E0,5.627699941E-2,4.891600087E-2,-1.349759996E-1,1.542024522E-1
1.828329553E0,5.241499841E-2,4.685100168E-2,-1.421079934E-1,1.585466184E-1
1.833340940E0,5.556700006E-2,5.906499922E-2,-1.444499940E-1,1.656567728E-1
1.838352406E0,4.228900000E-2,6.657399982E-2,-1.132939979E-1,1.380434241E-1
1.843364020E0,3.372199833E-2,6.244299933E-2,-7.974400371E-2,1.067492738E-1
1.848375464E0,2.952999994E-2,6.558199972E-2,-6.054000184E-2,9.401123021E-2
1.853387078E0,2.243199944E-2,5.476399884E-2,-4.850099981E-2,7.651560070E-2
1.858398487E0,2.160399966E-2,4.201100022E-2,-5.558399856E-2,7.294681512E-2
1.863409947E0,2.921300009E-2,3.197199851E-2,-1.956699975E-2,4.752342099E-2
1.868421625E0,3.350200132E-2,3.854599968E-2,-5.057999864E-3,5.132018653E-2
1.873433012E0,3.229200095E-2,3.581399843E-2,-1.445799973E-2,5.034331699E-2
1.878444625E0,2.837499976E-2,3.780600056E-2,-1.666600071E-2,5.012175046E-2
1.883456099E0,5.697400123E-2,3.754299879E-2,9.871999733E-3,6.894178670E-2
1.888467712E0,4.080599919E-2,3.026599996E-2,2.203699946E-2,5.537860299E-2
1.893479176E0,4.406400025E-2,3.035300039E-2,3.419800103E-2,6.350152774E-2
1.898490784E0,5.487399921E-2,3.050299920E-2,5.831800029E-2,8.568884354E-2
1.903502248E0,5.212200060E-2,2.131099999E-2,8.480899781E-2,1.018009223E-1
1.908513617E0,3.619499877E-2,2.161999978E-2,9.690900147E-2,1.056828127E-1
1.913525231E0,3.294000030E-2,2.875800058E-2,8.506300300E-2,9.564403116E-2
1.918536694E0,3.025599942E-2,2.859699912E-2,7.798899710E-2,8.840530260E-2
1.923548308E0,2.804799937E-2,1.914500073E-2,5.414799973E-2,6.391578206E-2
1.928559771E0,2.978000091E-3,1.002600044E-2,3.745000064E-2,3.888305180E-2
1.933571400E0,-2.361400053E-2,-5.847000051E-3,2.311499976E-2,3.355758699E-2
1.938582786E0,-2.864699997E-2,-1.892999932E-2,1.116899960E-2,3.610736813E-2
1.943594235E0,-2.872299962E-2,-3.857300058E-2,6.381999701E-2,7.991169564E-2
1.948605850E0,-3.581599891E-2,-5.512699857E-2,6.860099733E-2,9.501509661E-2
1.953617314E0,-3.351100162E-2,-6.636200100E-2,9.252700210E-2,1.186935067E-1
1.958628914E0,-2.917099930E-2,-5.391899869E-2,1.188580021E-1,1.337364210E-1
1.963640378E0,-3.455400094E-2,-4.422499985E-2,1.116970032E-1,1.250042004E-1
1.968651986E0,-2.842300013E-2,-3.036000021E-2,9.259200096E-2,1.015030797E-1
1.973663450E0,-2.953400090E-2,-1.483100001E-2,5.195900053E-2,6.157883976E-2
1.978675053E0,-1.887400076E-2,-4.722999875E-3,-3.018999938E-3,1.968880375E-2
1.983686517E0,-8.351000026E-3,-2.257999964E-3,-6.277299672E-2,6.336629138E-2
1.988698140E0,1.375900023E-2,-2.503999975E-3,-1.177259982E-1,1.185537462E-1
1.993709604E0,4.038799927E-2,1.116300002E-2,-1.606989950E-1,1.660721832E-1
1.998720988E0,4.824100062E-2,8.352000266E-3,-1.630080044E-1,1.702015263E-1
2.003732707E0,3.337199986E-2,1.758100092E-2,-1.653539985E-1,1.696016710E-1
2.008744093E0,1.484999992E-2,1.090900041E-2,-1.151029989E-1,1.165685599E-1
2.013755707E0,-2.787000034E-3,4.985999782E-3,-9.360399842E-2,9.377812156E-2
2.018767170E0,-1.066500042E-2,-1.643799990E-2,-2.665900066E-2,3.308553145E-2
2.023778783E0,-1.854800060E-2,-1.589299925E-2,3.549500182E-2,4.308724760E-2
2.028790242E0,-3.104799986E-2,-3.588499874E-2,7.131300122E-2,8.565778174E-2
2.033801855E0,-3.640700132E-2,-3.193400055E-2,1.238830015E-1,1.330122107E-1
2.038813333E0,-2.778499946E-2,-4.673400149E-2,1.357800066E-1,1.462610109E-1
2.043824718E0,-2.974000061E-3,-6.818000227E-2,1.476909965E-1,1.626959982E-1
2.048836408E0,2.810199931E-2,-6.589300185E-2,1.237410009E-1,1.429805769E-1
2.053848009E0,2.993929982E-1,-5.225599930E-2,3.067800030E-2,3.054635765E-1
2.058859396E0,5.662670135E-1,-9.057000279E-3,-4.290699959E-2,5.679624728E-1
2.063870858E0,1.403059959E-1,9.572000243E-3,1.726240069E-1,2.226576822E-1
2.068882471E0,-1.813369989E-1,6.235000119E-2,3.830100000E-1,4.283308183E-1
2.073893943E0,-2.294290066E-1,5.271200091E-2,3.731499910E-1,4.411996599E-1
2.078905557E0,-2.631500065E-1,-2.447400056E-2,2.627010047E-1,3.726375190E-1
2.083917020E0,-3.137469888E-1,-1.091040000E-1,1.282449961E-1,3.560725134E-1
2.088928649E0,-3.372800052E-1,-1.658290029E-1,-6.227999926E-3,3.758933999E-1
2.093940035E0,-2.889859974E-1,-1.629139930E-1,-1.286469996E-1,3.558144549E-1
2.098951495E0,-2.087460011E-1,-1.367550045E-1,-2.006859928E-1,3.202369310E-1
2.103963110E0,-1.163069978E-1,-1.088360026E-1,-2.510550022E-1,2.973234053E-1
2.108974574E0,-3.741300106E-2,-6.756299734E-2,-2.247380018E-1,2.376376669E-1
2.113986172E0,3.579900041E-2,-3.414500132E-2,-1.361089945E-1,1.448209513E-1
2.118997636E0,9.709399939E-2,5.487999879E-3,-1.869199984E-2,9.902905491E-2
2.124009020E0,1.476140022E-1,4.628700018E-2,7.005599886E-2,1.698240943E-1
2.129020701E0,1.767330021E-1,7.179600000E-2,1.420679986E-1,2.378498179E-1
2.134032087E0,1.899120063E-1,7.090000063E-2,1.662040055E-1,2.621395652E-1
2.139043717E0,1.900530010E-1,7.454399765E-2,1.424500048E-1,2.489356436E-1
2.144055180E0,1.819660068E-1,8.251900226E-2,8.994799852E-2,2.191156220E-1
2.149066794E0,1.562750041E-1,7.872299850E-2,1.107800007E-2,1.753337090E-1
2.154078257E0,1.270029992E-1,6.804800034E-2,-3.911399841E-2,1.492990188E-1
2.159089871E0,8.468999714E-2,6.016999856E-2,-8.695899695E-2,1.354794873E-1
2.164101247E0,4.090299830E-2,4.347899929E-2,-1.013389975E-1,1.176140768E-1
2.169112938E0,1.183300000E-2,2.991699986E-2,-9.420199692E-2,9.954427655E-2
2.174124353E0,-1.926499978E-2,2.159399912E-2,-8.229500055E-2,8.723478739E-2
2.179135815E0,-2.897099964E-2,1.836499944E-2,-2.731500007E-2,4.384861747E-2
2.184147428E0,-3.645500168E-2,3.762000008E-3,8.519999683E-3,3.762592439E-2
2.189158882E0,-2.769800089E-2,5.909000058E-3,2.044199966E-2,3.492808161E-2
2.194170495E0,-2.395799942E-2,1.489700004E-2,2.758800052E-2,3.945889151E-2
2.199181959E0,-8.658999577E-3,1.897699945E-2,3.474900126E-2,4.052897569E-2
2.204193635E0,6.149000023E-3,1.595599949E-2,-1.149000018E-3,1.713838738E-2
2.209205022E0,2.520000003E-2,1.986400038E-2,-1.549199969E-2,3.563173539E-2
2.214216644E0,4.609400034E-2,3.286600113E-2,-3.938400000E-2,6.896325365E-2
2.219228108E0,5.246900022E-2,4.326099902E-2,-6.327000260E-2,9.288489248E-2
2.224239492E0,5.643599853E-2,4.869300127E-2,-7.518800348E-2,1.058738219E-1
2.229251169E0,4.862700030E-2,4.706199840E-2,-6.796800345E-2,9.591176333E-2
2.234262555E0,3.622600064E-2,3.387099877E-2,-7.511900365E-2,9.001351226E-2
2.239274169E0,2.168500051E-2,2.809499949E-2,-8.945500106E-2,9.623806657E-2
2.244285632E0,2.792000072E-3,1.554599963E-2,-5.834800005E-2,6.044801468E-2
2.249297256E0,-1.556000020E-2,3.512999974E-3,-2.247600071E-2,2.756130228E-2
2.254308719E0,-3.803899884E-2,3.578000003E-3,6.194999907E-3,3.870588509E-2
2.259320337E0,-5.968799815E-2,-7.826999761E-3,5.397899821E-2,8.085574374E-2
2.264331723E0,-8.745399863E-2,-1.417499967E-2,8.976700157E-2,1.261239353E-1
2.269343164E0,-1.026580036E-1,-4.116300121E-2,1.015949994E-1,1.501818973E-1
2.274354779E0,-9.639299661E-2,-4.657499865E-2,1.014640033E-1,1.474984212E-1
2.279366243E0,-8.109600097E-2,-4.492200166E-2,8.699300140E-2,1.271311524E-1
2.284377856E0,-6.870999932E-2,-6.219400093E-2,6.535600126E-2,1.134044296E-1
2.289389320E0,-5.468299985E-2,-5.603799969E-2,4.853300005E-2,9.211916183E-2
2.294400704E0,-2.506799996E-2,-4.792299867E-2,4.610399902E-2,7.106755342E-2
2.299412318E0,9.689999861E-4,-3.094900027E-2,3.414399922E-2,4.609329953E-2
2.304423786E0,3.505299985E-2,-2.639899962E-2,-6.482999772E-3,4.435819277E-2
2.309435400E0,1.839599945E-2,-3.861400113E-2,-9.256300330E-2,1.019674627E-1
2.314446863E0,2.189799957E-2,-3.958300129E-2,-1.211640015E-1,1.293331034E-1
2.319458472E0,3.854100034E-2,-3.658499941E-2,-7.075399905E-2,8.848728310E-2
2.324469935E0,4.132299870E-2,-8.574999869E-3,8.016300201E-2,9.059375109E-2
2.329481548E0,2.731999941E-2,3.968700022E-2,2.214639932E-1,2.266445248E-1
2.334492998E0,-2.082500048E-2,6.868500262E-2,2.501820028E-1,2.602735959E-1
2.339504611E0,-6.056199968E-2,7.689200342E-2,7.778599858E-2,1.250231881E-1
2.344516088E0,-5.861100182E-2,7.665000111E-2,-1.784009933E-1,2.028235357E-1
2.349527473E0,-6.421100348E-2,3.318899870E-2,-3.628189862E-1,3.699488875E-1
2.354539086E0,-2.240099944E-2,-3.565999912E-3,-3.820790052E-1,3.827517307E-1
2.359550569E0,1.419200003E-2,2.959999954E-3,-2.864060104E-1,2.867726927E-1
2.364562182E0,3.453499824E-2,4.889000207E-3,-1.619729996E-1,1.656859107E-1
2.369573626E0,6.520199776E-2,8.960000239E-3,-3.509800136E-2,7.458855016E-2
2.374585240E0,1.064670011E-1,3.404000076E-3,8.839999791E-4,1.065250722E-1
2.379596698E0,1.423649937E-1,7.013999857E-3,2.971100062E-2,1.456012747E-1
2.384608312E0,1.383949965E-1,1.503899973E-2,3.698800132E-2,1.440397821E-1
2.389619703E0,1.096829996E-1,-2.886000089E-3,4.900199920E-2,1.201660739E-1
2.394631394E0,6.596399844E-2,-1.330699958E-2,7.292900234E-2,9.923187346E-2
2.399642857E0,1.435600035E-2,-4.197800159E-2,1.111529991E-1,1.196797250E-1
2.404654247E0,-1.724899933E-2,-6.747400016E-2,1.302009970E-1,1.476569277E-1
2.409665860E0,-2.719799988E-2,-9.007299691E-2,1.324899942E-1,1.625006908E-1
2.414677324E0,-4.186899960E-2,-8.425900340E-2,1.132450029E-1,1.472311905E-1
2.419688942E0,-3.546100110E-2,-9.499199688E-2,9.401500225E-2,1.382743025E-1
2.424700329E0,-3.403000161E-2,-8.933699876E-2,6.282900274E-2,1.143967829E-1
2.429712019E0,-3.507500142E-2,-8.629000187E-2,7.232999802E-2,1.179315427E-1
2.434723483E0,-3.149199858E-2,-6.714300066E-2,9.141399711E-2,1.177134121E-1
2.439734857E0,-2.329000086E-2,-5.326399952E-2,1.224730015E-1,1.355695905E-1
2.444746548E0,-2.459000051E-2,-3.758699819E-2,1.631080061E-1,1.691794084E-1
2.449757934E0,-3.054100089E-2,-2.487199940E-2,1.846040040E-1,1.887591253E-1
2.454769530E0,-2.714999951E-2,-1.973799989E-2,1.821810007E-1,1.852474781E-1
2.459780993E0,-1.695900038E-2,-5.768999923E-3,1.725970060E-1,1.735241065E-1
2.464792620E0,2.246000106E-3,9.797999635E-3,1.319279969E-1,1.323103990E-1
2.469804083E0,2.547499910E-2,2.219999954E-2,7.214599848E-2,7.966718682E-2
2.474815683E0,1.545299962E-2,3.872599825E-2,5.185999908E-3,4.201657688E-2
2.479827146E0,4.757700115E-2,5.229000002E-2,-4.977700114E-2,8.646134965E-2
2.484838760E0,5.560899898E-2,7.012499869E-2,-8.319299668E-2,1.221922702E-1
2.489850160E0,5.873399973E-2,7.598499954E-2,-1.046390012E-1,1.420307130E-1
2.494861620E0,6.402300298E-2,7.494299859E-2,-1.045449972E-1,1.436838696E-1
2.499873235E0,5.975500122E-2,6.257499754E-2,-9.727899730E-2,1.301902216E-1
2.504884713E0,5.784299970E-2,5.785600096E-2,-7.087399811E-2,1.082416420E-1
2.509896326E0,5.363100022E-2,4.663100094E-2,-4.687400162E-2,8.513463726E-2
2.514907809E0,4.486500099E-2,4.754000157E-2,-2.527300082E-2,7.008312660E-2
2.519919193E0,3.881800175E-2,3.688500077E-2,-8.472000249E-3,5.421360834E-2
2.524930884E0,4.242600128E-2,2.667500079E-2,1.139999949E-3,5.012804456E-2
2.529942510E0,3.915100172E-2,2.141799964E-2,1.074399985E-2,4.590169035E-2
2.534953974E0,2.449199930E-2,2.792299911E-2,1.315400004E-2,3.940278704E-2
2.539965348E0,1.969300024E-2,1.805599965E-2,3.230100125E-2,4.191882708E-2
2.544976962E0,1.986300014E-2,2.943599969E-2,3.469799832E-2,4.964844347E-2
2.549988430E0,6.175000221E-3,2.411600016E-2,5.382899940E-2,5.930660391E-2
2.555000044E0,-2.398000099E-3,3.984500095E-2,5.381499976E-2,6.700319921E-2
2.560011507E0,-3.697999986E-3,3.176499903E-2,4.661900178E-2,5.653336797E-2
2.565022911E0,1.359700039E-2,3.790400177E-2,2.986899950E-2,5.013730049E-2
2.570034524E0,1.643200032E-2,3.224400058E-2,1.311799977E-2,3.849374139E-2
2.575046216E0,2.885000082E-3,2.205600031E-2,2.507000044E-2,3.351559782E-2
2.580057685E0,-9.679999785E-4,2.842199989E-2,2.744800039E-2,3.952391462E-2
2.585069070E0,-7.077000104E-3,1.591400057E-2,4.178500175E-2,4.526947886E-2
2.590080678E0,-6.022999994E-3,1.991800033E-2,6.091000140E-2,6.436638514E-2
2.595092142E0,-1.647599973E-2,2.136700042E-2,7.524099946E-2,7.993256704E-2
2.600103832E0,-2.639699914E-2,1.341000013E-2,4.648200050E-2,5.511085226E-2
2.605115213E0,-3.131299838E-2,-8.413000032E-3,5.360300094E-2,6.264634185E-2
2.610126827E0,-4.305899888E-2,-2.054600045E-2,3.439300135E-2,5.881406346E-2
2.615138214E0,-3.801399842E-2,-5.338399857E-2,4.867000133E-2,8.163139352E-2
2.620149673E0,-4.458399862E-2,-6.898000091E-2,8.446799964E-2,1.178168766E-1
2.625161288E0,-4.623699933E-2,-7.481700182E-2,1.130819991E-1,1.432584462E-1
2.630172981E0,-3.627400100E-2,-7.124199718E-2,1.464940012E-1,1.668883390E-1
2.635184367E0,-3.142699972E-2,-5.163799971E-2,1.512120068E-1,1.628471993E-1
2.640195820E0,-3.864099830E-2,-3.982099891E-2,1.415839940E-1,1.520686229E-1
2.645207433E0,-4.132200032E-2,-2.402300015E-2,1.032589972E-1,1.137850287E-1
2.650218897E0,-1.629400067E-2,-4.563000053E-3,2.668900043E-2,3.160092042E-2
2.655230510E0,1.028100029E-2,-9.360999800E-3,-7.856900245E-2,7.978982034E-2
2.660241897E0,5.713599920E-2,1.585599966E-2,-1.837790012E-1,1.931078880E-1
2.665253587E0,7.042100281E-2,3.793200105E-2,-2.626520097E-1,2.745615278E-1
2.670265031E0,6.763099879E-2,3.891199827E-2,-2.912960052E-1,3.015650150E-1
2.675276415E0,3.748499975E-2,4.059400037E-2,-2.649469972E-1,2.706472046E-1
2.680288029E0,1.306799985E-2,4.077199847E-2,-2.170999944E-1,2.212815764E-1
2.685299507E0,-1.053399965E-2,2.077900060E-2,-1.310070008E-1,1.330622647E-1
2.690311121E0,-1.052800007E-2,9.053000249E-3,-6.167500094E-2,6.321867872E-2
2.695322569E0,-6.190999877E-3,-8.764999919E-3,1.004400011E-2,1.469815095E-2
2.700334183E0,-2.375999931E-3,-2.352800034E-2,5.304900184E-2,5.808105347E-2
2.705345637E0,1.111999969E-3,-3.545499966E-2,9.127099812E-2,9.792184967E-2
2.710357022E0,1.368600037E-2,-4.481500015E-2,1.223229989E-1,1.309908658E-1
2.715368635E0,3.524800017E-2,-5.181099847E-2,1.390320063E-1,1.525014749E-1
2.720380094E0,5.405899882E-2,-4.966299981E-2,1.748999953E-1,1.896807773E-1
2.725391707E0,8.402399719E-2,-4.788700119E-2,1.509689987E-1,1.792898088E-1
2.730403171E0,1.154690012E-1,-2.551399916E-2,1.342550069E-1,1.789090866E-1
2.735414779E0,1.042390019E-1,-1.798200049E-2,1.271110028E-1,1.653672546E-1
2.740426243E0,9.325499833E-2,-6.227999926E-3,9.604000300E-2,1.340110625E-1
2.745437856E0,8.946900070E-2,-6.508999970E-3,6.257800013E-2,1.093758441E-1
2.750449243E0,5.778500065E-2,-1.132200006E-2,2.430599928E-2,6.370302651E-2
2.755460933E0,3.847200051E-2,-6.651999895E-3,1.713199914E-2,4.263624421E-2
2.760472320E0,7.876999676E-3,-9.037000127E-3,-4.414999858E-3,1.277523851E-2
2.765483767E0,-3.531999886E-3,-2.283499949E-2,-6.829999853E-3,2.409483602E-2
2.770495381E0,-1.037599985E-2,-3.615799919E-2,-6.854000036E-3,3.823662635E-2
2.775506848E0,-1.272000000E-2,-4.205000028E-2,1.226899959E-2,4.561281919E-2
2.780518462E0,-1.765800081E-2,-4.079100117E-2,3.857500106E-2,5.885355959E-2
2.785529935E0,-1.322000008E-2,-3.968700022E-2,4.335400090E-2,6.024446682E-2
2.790541549E0,-1.123099960E-2,-2.480299957E-2,5.292699859E-2,5.951967170E-2
2.795553007E0,8.499999967E-5,-2.685900033E-2,2.900799923E-2,3.953324098E-2
2.800564620E0,2.049699984E-2,-1.981900074E-2,-6.854999810E-3,2.932423597E-2
2.805576084E0,4.270600155E-2,-1.318399981E-2,-4.030499980E-2,6.018399644E-2
2.810587683E0,6.440699846E-2,2.347999951E-3,-5.698199943E-2,8.602745383E-2
2.815599070E0,7.634799927E-2,2.199400030E-2,-5.689400062E-2,9.772246594E-2
2.820610525E0,7.187899947E-2,3.415299952E-2,-4.005799815E-2,8.909355284E-2
2.825622140E0,5.626099929E-2,3.899699822E-2,-1.606100053E-2,7.031373727E-2
2.830633832E0,5.994800106E-2,3.925000131E-2,1.271400042E-2,7.277342400E-2
2.835645233E0,3.808699921E-2,3.261400014E-2,5.342999846E-2,7.327385106E-2
2.840656695E0,1.450099982E-2,1.933600008E-2,5.822899938E-2,6.304582669E-2
2.845668308E0,-1.075099967E-2,6.581999827E-3,7.257200032E-2,7.365868548E-2
2.850679800E0,-2.827499993E-2,3.562999889E-3,8.929099888E-2,9.372861393E-2
2.855691185E0,-4.534199834E-2,1.217699982E-2,7.968299836E-2,9.248543867E-2
2.860702817E0,-4.113600031E-2,2.272499911E-2,6.291099638E-2,7.852636227E-2
2.865714281E0,-6.027000025E-2,3.283600137E-2,6.048800051E-2,9.148483001E-2
2.870725894E0,-6.015700102E-2,1.935200021E-2,2.934399992E-2,6.967377566E-2
2.875737358E0,-4.851299897E-2,2.000699937E-2,7.786999922E-3,5.305118717E-2
2.880748971E0,-3.961500153E-2,6.763999816E-3,-1.616100036E-2,4.331602443E-2
2.885760353E0,-3.099800088E-2,-1.769199967E-2,-3.772300109E-2,5.193176025E-2
2.890771813E0,-6.531000137E-3,-2.499400079E-2,-5.926999822E-2,6.465513690E-2
2.895783428E0,-3.817999968E-3,-4.355899990E-2,-6.885900348E-2,8.156914831E-2
2.900794902E0,-5.880999845E-3,-4.983200133E-2,-5.691700056E-2,7.587726582E-2
2.905806515E0,-5.727999844E-3,-3.965700045E-2,-3.300200030E-2,5.190972636E-2
2.910817963E0,8.423999883E-3,-2.298999950E-2,-4.280999769E-3,2.485620265E-2
2.915829577E0,1.051099971E-2,-2.284999937E-3,2.923999913E-2,3.115573605E-2
2.920841045E0,1.511299983E-2,6.084000226E-3,5.080100149E-2,5.334941026E-2
2.925852659E0,1.298800018E-2,2.331900038E-2,6.997100264E-2,7.488928587E-2
2.930864122E0,-3.229999857E-4,1.211700030E-2,6.518799812E-2,6.630536271E-2
2.935875736E0,-1.751600020E-2,2.220200002E-2,6.756699830E-2,7.324642194E-2
2.940887122E0,-1.307499968E-2,1.804599911E-2,4.840800166E-2,5.329116555E-2
2.945898558E0,2.881000051E-3,1.876199991E-2,2.447300032E-2,3.097160871E-2
2.950910173E0,8.941000327E-3,3.192000091E-3,5.349999992E-4,9.508763139E-3
2.955921623E0,-1.619999995E-3,-9.477999993E-3,-1.862600073E-2,2.096150727E-2
2.960933236E0,1.750000054E-3,-1.487299986E-2,-3.299500048E-2,3.623449574E-2
2.965944700E0,-2.116000047E-3,-2.009899914E-2,-2.343600057E-2,3.094662091E-2
2.970956303E0,-3.670000006E-3,-2.748600021E-2,-2.584300004E-2,3.790527349E-2
2.975967767E0,2.725699916E-2,-1.149700023E-2,-1.864700019E-2,3.496906682E-2
2.980979361E0,3.111699969E-2,-1.013700012E-2,-1.023589969E-1,1.074634388E-1
2.985990825E0,3.834899887E-2,-9.344000369E-3,-1.860280037E-1,1.901693304E-1
2.991002199E0,5.832999945E-2,2.080900036E-2,-1.691229939E-1,1.801054980E-1
2.996013890E0,9.602099657E-2,4.734500125E-2,-1.066920012E-1,1.511448446E-1
3.001025505E0,9.633100033E-2,7.563199848E-2,1.136640012E-1,1.670908914E-1
3.006036902E0,5.464399979E-2,1.013799980E-1,2.789080143E-1,3.017508097E-1
3.011048363E0,-1.153900009E-2,9.701099992E-2,2.741349936E-1,2.910228124E-1
3.016059991E0,-4.862900078E-2,7.734800130E-2,1.328729987E-1,1.612536102E-1
3.021071377E0,-7.749599963E-2,2.205899917E-2,-5.871599913E-2,9.969853538E-2
3.026082837E0,-9.720499814E-2,-2.173900045E-2,-1.665800065E-1,1.940883674E-1
3.031094539E0,-6.922200322E-2,-5.212499946E-2,-1.858769953E-1,2.050828093E-1
3.036105926E0,-4.820400104E-2,-3.979299963E-2,-1.261519939E-1,1.407886149E-1
3.041117539E0,6.287999917E-3,-2.816499956E-2,-7.353799790E-2,7.899774224E-2
3.046129003E0,5.450199917E-2,-1.723700017E-2,-5.677200109E-2,8.056452194E-2
3.051140616E0,1.087090001E-1,-2.268000040E-3,-1.069639996E-1,1.525256953E-1
3.056152075E0,1.342249960E-1,1.240199991E-2,-1.427929997E-1,1.963670031E-1
3.061163688E0,1.247560009E-1,2.218200080E-2,-2.025689930E-1,2.389357609E-1
3.066175137E0,1.205239967E-1,2.525000088E-2,-1.929689944E-1,2.289118370E-1
3.071186521E0,9.559799731E-2,1.725899987E-2,-1.403329968E-1,1.706757164E-1
3.076198203E0,5.271400139E-2,1.242700033E-2,-4.706000164E-2,7.174844970E-2
3.081209818E0,1.547699980E-2,-1.737999916E-2,4.616599903E-2,5.170010986E-2
3.086221176E0,-1.644499972E-2,-6.008499861E-2,1.034620032E-1,1.207685024E-1
3.091232637E0,-3.388699889E-2,-1.038319990E-1,1.439830065E-1,1.807222146E-1
3.096244251E0,-3.943099827E-2,-1.253809929E-1,1.677490026E-1,2.131077776E-1
3.101255728E0,-3.104900010E-2,-1.393859982E-1,1.867389977E-1,2.350828581E-1
3.106267341E0,-2.289799973E-2,-1.369010061E-1,2.177069932E-1,2.581908960E-1
3.111278775E0,-2.415000089E-2,-1.185330003E-1,2.319409996E-1,2.615911352E-1
3.116290160E0,-3.446999937E-2,-1.102359965E-1,2.437819988E-1,2.697588158E-1
3.121301850E0,-3.729199991E-2,-9.778200090E-2,2.197359949E-1,2.433843060E-1
3.126313461E0,-5.618200079E-2,-7.200600207E-2,1.909050047E-1,2.116270360E-1
3.131324925E0,-4.905699939E-2,-5.188700184E-2,1.381669939E-1,1.555280307E-1
3.136336324E0,-7.472600043E-2,-4.422400147E-2,9.738499671E-2,1.304744229E-1
3.141347937E0,-1.020300016E-1,-2.537300065E-2,4.702899978E-2,1.151765480E-1
3.146359400E0,-7.520700246E-2,-9.483000264E-3,-5.692000035E-3,7.601591529E-2
3.151371024E0,-4.723799974E-2,1.276499964E-2,-2.487600036E-2,5.489252434E-2
3.156382487E0,-2.268300019E-2,2.267000079E-2,-4.403699934E-2,5.447664403E-2
3.161394120E0,7.680000272E-4,4.399700090E-2,-4.641800001E-2,6.396058660E-2
3.166405506E0,-1.151899993E-2,5.309600011E-2,-1.290499978E-2,5.584273996E-2
3.171417202E0,2.047999995E-3,5.729300156E-2,1.343999989E-2,5.888391910E-2
3.176428665E0,1.741600037E-2,6.833299994E-2,2.305099927E-2,7.418938278E-2
3.181440054E0,1.620399952E-2,6.280100346E-2,3.744199872E-2,7.488951131E-2
3.186451667E0,1.521200035E-2,6.214199960E-2,4.464999959E-2,7.801702079E-2
3.191463146E0,3.769800067E-2,4.983500019E-2,3.989699855E-2,7.413795918E-2
3.196474759E0,5.736700073E-2,5.420399830E-2,3.754800186E-2,8.740079317E-2
3.201486223E0,7.436399907E-2,5.392099917E-2,3.759599850E-2,9.925188971E-2
3.206497841E0,6.537400186E-2,6.757000089E-2,3.285799921E-2,9.959474510E-2
3.211509305E0,6.855499744E-2,6.223599985E-2,2.811400034E-2,9.676520225E-2
3.216520679E0,5.782699957E-2,5.247600004E-2,2.096199989E-2,8.085232155E-2
3.221532293E0,4.986900091E-2,3.843199834E-2,3.293799981E-2,7.105524316E-2
3.226543732E0,5.161799863E-2,3.183500096E-2,3.773099929E-2,7.142487925E-2
3.231555423E0,3.015499935E-2,2.072899975E-2,3.054000065E-2,4.766242813E-2
3.236567039E0,2.101299912E-2,1.924500056E-2,4.487700015E-2,5.315883107E-2
3.241578430E0,1.446499955E-2,1.542400010E-2,4.485100135E-2,4.958576725E-2
3.246589891E0,2.429999970E-2,4.631000105E-3,4.243699834E-2,4.912061660E-2
3.251601505E0,1.983300038E-2,9.340000106E-4,1.370199956E-2,2.412395183E-2
3.256612982E0,3.871100023E-2,-4.912000149E-3,1.369099971E-2,4.135350962E-2
3.261624367E0,4.326799884E-2,7.859000005E-3,4.114000127E-3,4.416795900E-2
3.266635994E0,5.012200028E-2,2.030099928E-2,-5.454999860E-3,5.435165597E-2
3.271647687E0,4.998499900E-2,3.700799868E-2,-7.844000123E-3,6.268668462E-2
3.276659073E0,3.854899853E-2,4.410599917E-2,-7.854999974E-3,5.910216134E-2
3.281670535E0,2.292300016E-2,3.479300067E-2,-2.463199943E-2,4.840198578E-2
3.286682148E0,7.697000168E-3,3.038999997E-2,-4.381300136E-2,5.387369486E-2
3.291693612E0,1.595799997E-2,1.689700037E-2,-4.384699836E-2,4.962585667E-2
3.296705211E0,3.048999934E-3,-5.396999884E-3,-3.216000041E-3,6.983313297E-3
3.301716675E0,-7.292999886E-3,-8.314999752E-3,5.654999986E-2,5.762143310E-2
3.306728073E0,-1.758999936E-2,-1.356600039E-2,1.258859932E-1,1.278308560E-1
3.311739764E0,-2.095099911E-2,-9.420000017E-3,1.713030040E-1,1.728363386E-1
3.316751155E0,-5.243400112E-2,-3.370000049E-3,1.856060028E-1,1.928996362E-1
3.321762769E0,-4.852899909E-2,-4.309999931E-4,1.544609964E-1,1.619056791E-1
3.326774232E0,-1.478600036E-2,8.755000308E-3,5.874399841E-2,6.120566302E-2
3.331785846E0,2.952799946E-2,1.015000045E-3,-6.565699726E-2,7.199843239E-2
3.336797309E0,3.108000010E-2,1.423399989E-2,-1.661300063E-1,1.696105898E-1
3.341808922E0,2.373499982E-2,3.421299905E-2,-2.378949970E-1,2.415117163E-1
3.346820386E0,1.225799974E-2,4.018399864E-2,-2.666060030E-1,2.698958561E-1
3.351831999E0,-1.279699989E-2,2.810800076E-2,-1.996279955E-1,2.020028700E-1
3.356843386E0,-4.650399834E-2,7.753999904E-3,-1.207199991E-1,1.295996318E-1
3.361854846E0,-5.630199984E-2,-1.848799922E-2,-2.268199995E-2,6.345230037E-2
3.366866461E0,-4.756699875E-2,-3.910300136E-2,4.903599992E-2,7.871590293E-2
3.371877925E0,-3.240000084E-2,-4.968599975E-2,1.088040024E-1,1.239224337E-1
3.376889538E0,-1.302899979E-2,-6.007299945E-2,1.302939951E-1,1.440661142E-1
3.381901001E0,-7.910000160E-3,-5.395400152E-2,1.565729976E-1,1.657971832E-1
3.386912395E0,6.655000150E-3,-5.057699978E-2,1.756799966E-1,1.829365550E-1
3.391924085E0,1.662700064E-2,-6.379400194E-2,1.780309975E-1,1.898451156E-1
3.396935701E0,1.743000001E-2,-6.054500118E-2,1.708090007E-1,1.820582786E-1
3.401947150E0,2.313400060E-2,-6.227999926E-2,1.396570057E-1,1.546546460E-1
3.406958764E0,2.883400023E-2,-5.711700022E-2,1.180810034E-1,1.343014321E-1
3.411970145E0,4.132099822E-2,-4.758499935E-2,1.060879976E-1,1.233953819E-1
3.416981605E0,3.002599999E-2,-3.839899972E-2,8.691599965E-2,9.965156723E-2
3.421993220E0,3.048999980E-2,-3.412999958E-2,7.971400023E-2,9.191745640E-2
3.427004679E0,2.385300025E-2,-1.832400076E-2,7.490800321E-2,8.072139475E-2
3.432016292E0,2.663300000E-2,-2.869999968E-3,6.532000005E-2,7.059926342E-2
3.437027781E0,3.391699865E-2,-1.689000055E-3,7.009600103E-2,7.788879816E-2
3.442039394E0,2.252900042E-2,-7.387999911E-3,6.768199801E-2,7.171465162E-2
3.447050781E0,1.856400073E-2,-1.279699989E-2,6.526099890E-2,6.904624035E-2
3.452062249E0,1.476399973E-2,-2.257099934E-2,4.369200021E-2,5.134604738E-2
3.457073865E0,1.327699982E-2,-1.568499953E-2,3.887699917E-2,4.397407189E-2
3.462085328E0,1.867499948E-2,-2.977599949E-2,3.406200185E-2,4.894472108E-2
3.467096942E0,1.670099981E-2,-4.570800066E-2,2.446400002E-2,5.446679737E-2
3.472108391E0,2.150299959E-2,-5.895999819E-2,1.487299986E-2,6.449702709E-2
3.477120005E0,3.050100058E-2,-4.175899923E-2,1.247499976E-2,5.319540086E-2
3.482131477E0,1.583299972E-2,-3.460000083E-2,2.896999940E-3,3.816066753E-2
3.487143091E0,1.780599914E-2,-2.093099989E-2,2.682599984E-2,3.840305495E-2
3.492154573E0,1.209000009E-3,1.083699986E-2,2.442800067E-2,2.675125163E-2
3.497166187E0,-1.470800024E-2,1.606200077E-2,2.680299990E-2,3.453569086E-2
3.502177650E0,-1.377400011E-2,3.273899853E-2,3.875099868E-2,5.256619638E-2
3.507189035E0,-1.261799969E-2,4.416000098E-2,6.026899815E-2,7.577381962E-2
3.512200648E0,-3.006600030E-2,4.833500087E-2,6.263300031E-2,8.463527286E-2
3.517212112E0,-3.312399983E-2,5.232600123E-2,6.260599941E-2,8.806089332E-2
3.522223725E0,-3.157199919E-2,5.363199860E-2,5.301199853E-2,8.175239688E-2
3.527235112E0,-2.786600031E-2,6.400299817E-2,5.060499907E-2,8.621927672E-2
3.532246571E0,-1.731700078E-2,5.072300136E-2,2.905900031E-2,6.096824487E-2
3.537258197E0,9.215000086E-3,5.628599972E-2,1.470500045E-2,5.890048411E-2
3.542269660E0,2.439999953E-4,4.994700104E-2,-9.223000146E-3,5.079198933E-2
3.547281279E0,5.514999852E-3,1.594300009E-2,-3.315899894E-2,3.720367839E-2
3.552292742E0,6.093999837E-3,6.169999950E-3,-5.231099948E-2,5.302496016E-2
3.557304346E0,2.528399974E-2,-5.566999782E-3,-4.752799869E-2,5.412192521E-2
3.562315809E0,1.603900082E-2,-2.968000015E-3,-5.949800089E-2,6.169336011E-2
3.567327437E0,7.015999872E-3,-5.028000101E-3,-5.472400039E-2,5.540055287E-2
3.572338900E0,2.907000016E-3,-1.392699964E-2,-5.473899841E-2,5.655766894E-2
3.577350285E0,-8.088000119E-3,-1.083199959E-2,-3.561500087E-2,3.809430730E-2
3.582361951E0,-4.827000201E-3,3.834000090E-3,-3.084699996E-2,3.145690535E-2
3.587373566E0,2.988999942E-3,1.348400023E-2,-6.928000133E-3,1.545152318E-2
3.592385045E0,1.361000002E-3,2.992999926E-2,1.938099973E-2,3.568305378E-2
3.597396658E0,4.486999940E-3,3.886299953E-2,2.655199915E-2,4.728080541E-2
3.602408045E0,1.686500013E-2,3.598200157E-2,2.894099988E-2,4.916008687E-2
3.607419495E0,1.261700038E-2,4.704999924E-2,1.697099954E-2,5.158396991E-2
3.612431110E0,2.943100035E-2,5.765600130E-2,-9.343000129E-3,6.540405124E-2
3.617442511E0,3.406599909E-2,5.407200009E-2,-2.129800059E-2,6.736377600E-2
3.622453970E0,3.386300057E-2,5.535899848E-2,-1.650300063E-2,6.696021617E-2
3.627465586E0,3.605499864E-2,4.970899969E-2,-2.135999966E-3,6.144517941E-2
3.632477278E0,4.044799879E-2,3.953000158E-2,9.837999940E-3,5.740599162E-2
3.637488664E0,3.074200079E-2,2.502300031E-2,4.334099963E-2,5.873383528E-2
3.642500117E0,1.669000089E-2,2.243899927E-2,5.290799960E-2,5.984414123E-2
3.647511807E0,1.699399948E-2,8.268999867E-3,6.965400279E-2,7.217238032E-2
3.652523423E0,9.830000345E-4,1.307999948E-3,7.921200246E-2,7.922889931E-2
3.657534799E0,-2.880000044E-3,-1.259000041E-2,8.158600330E-2,8.260192761E-2
3.662546261E0,-1.126900036E-2,-2.143000066E-2,8.874200284E-2,9.198575089E-2
3.667557898E0,-2.393499948E-2,-2.078099921E-2,7.913900167E-2,8.525089861E-2
3.672569285E0,-1.991700009E-2,-2.943900041E-2,6.714200228E-2,7.596966571E-2
3.677580975E0,-2.775100060E-2,-2.159000002E-2,5.514699966E-2,6.540212310E-2
3.682592439E0,-1.683600061E-2,-2.093799971E-2,6.469400227E-2,7.005115758E-2
3.687603804E0,-3.172200173E-2,-2.024699934E-2,6.466100365E-2,7.481491675E-2
3.692615418E0,-2.526699938E-2,-2.665900066E-2,7.180999964E-2,8.065853720E-2
3.697626881E0,-1.674900018E-2,-3.758199885E-2,6.221099943E-2,7.458648735E-2
3.702638500E0,-3.969000187E-3,-5.288000032E-2,4.544200003E-2,6.983568403E-2
3.707649963E0,1.260599960E-2,-7.491599768E-2,-4.070900008E-2,8.618898202E-2
3.712661348E0,2.046000026E-2,-9.448599815E-2,-1.507669985E-1,1.791002605E-1
3.717672970E0,7.551100105E-2,-8.181399852E-2,-1.746249944E-1,2.070973933E-1
3.722684434E0,1.239589974E-1,-3.283400089E-2,-1.457989961E-1,1.941681022E-1
3.727696124E0,1.555050015E-1,2.408500016E-2,1.226000022E-2,1.578359919E-1
3.732707740E0,1.089230031E-1,5.204800144E-2,2.229129970E-1,2.535023063E-1
3.737719203E0,3.305000067E-2,7.053200155E-2,3.138479888E-1,3.233691789E-1
3.742730583E0,-4.161699861E-2,4.958099872E-2,3.042140007E-1,3.110247711E-1
3.747742196E0,-9.059900045E-2,2.266700007E-2,2.012230009E-1,2.218392839E-1
3.752753660E0,-9.696000069E-2,-5.613999907E-3,7.191299647E-2,1.208479946E-1
3.757765264E0,-8.571500331E-2,-2.847399935E-2,-9.513000026E-3,9.082030390E-2
3.762776728E0,-4.781100154E-2,-4.630500078E-2,-5.023200065E-2,8.338644287E-2
3.767788112E0,4.763000179E-3,-4.312999919E-2,-6.459400058E-2,7.781560198E-2
3.772799716E0,5.133200064E-2,-4.278999940E-2,-8.611200005E-2,1.090010775E-1
3.777811179E0,8.790200204E-2,-1.497900020E-2,-1.171879992E-1,1.472554229E-1
3.782822817E0,9.627100080E-2,2.113699913E-2,-1.506569982E-1,1.800344673E-1
3.787834280E0,8.402299881E-2,4.478200153E-2,-1.769589931E-1,2.009472001E-1
3.792845894E0,4.229300097E-2,6.579899788E-2,-1.793529987E-1,1.956673305E-1
3.797857357E0,-5.210000090E-4,6.358399987E-2,-1.482709944E-1,1.613303576E-1
3.802868971E0,-3.547500074E-2,6.681100279E-2,-1.076299995E-1,1.315538010E-1
3.807880434E0,-4.894699901E-2,4.961600155E-2,-5.503100157E-2,8.880296986E-2
3.812892048E0,-6.259600073E-2,3.111499920E-2,2.347999951E-3,6.994223035E-2
3.817903429E0,-6.005800143E-2,-9.673000313E-3,4.058400169E-2,7.312722929E-2
3.822914889E0,-4.151599854E-2,-3.042900003E-2,7.403899729E-2,9.017358426E-2
3.827926572E0,-2.363999933E-2,-4.586200044E-2,9.792900085E-2,1.106899357E-1
3.832938187E0,-1.324700005E-2,-6.786400080E-2,1.337870061E-1,1.505987006E-1
3.837949559E0,3.934999928E-3,-6.843800098E-2,1.672589928E-1,1.807617627E-1
3.842961021E0,1.597700082E-2,-6.233299896E-2,1.911689937E-1,2.017083327E-1
3.847972644E0,3.010600060E-2,-6.826099753E-2,1.935479939E-1,2.074289300E-1
3.852984108E0,4.148799926E-2,-5.109199882E-2,1.791860014E-1,1.908907267E-1
3.857995721E0,4.996199906E-2,-5.789100006E-2,1.600469947E-1,1.773770271E-1
3.863007184E0,5.347000062E-2,-4.383099824E-2,1.433060020E-1,1.591125626E-1
3.868018569E0,4.749900103E-2,-2.126399986E-2,9.306900203E-2,1.066309145E-1
3.873030259E0,3.703000024E-2,-4.197000060E-3,3.325700015E-2,4.994861145E-2
3.878041646E0,3.154699877E-2,9.909000248E-3,-2.416099980E-2,4.095308693E-2
3.883053259E0,3.551099822E-2,5.024000071E-3,-2.654200047E-2,4.461781438E-2
3.888064737E0,2.536699921E-2,2.343099937E-2,-3.371100128E-2,4.825896795E-2
3.893076350E0,1.083400007E-2,1.807999983E-2,-1.695599966E-2,2.705120840E-2
3.898087814E0,6.035999861E-3,1.985800080E-2,1.415400021E-2,2.512188711E-2
3.903099199E0,5.977999885E-3,1.004299987E-2,4.526399821E-2,4.674856001E-2
3.908110812E0,-9.740000241E-4,1.213200018E-2,6.440400332E-2,6.554395280E-2
3.913122276E0,-1.688399911E-2,-6.672000047E-3,6.678400189E-2,6.920757125E-2
3.918133889E0,-8.983000182E-3,-4.021000117E-3,7.155899704E-2,7.223262968E-2
3.923145342E0,-1.982899942E-2,-1.769799925E-2,7.393400371E-2,7.856618420E-2
3.928156956E0,-1.642699912E-2,-1.013400033E-2,5.956099927E-2,6.261035775E-2
3.933168419E0,-8.541000076E-3,-5.175000057E-3,6.912299991E-2,6.984066454E-2
3.938180033E0,-5.592999980E-3,1.898000017E-3,7.150799781E-2,7.175150036E-2
3.943191501E0,-4.130000016E-4,1.334299985E-2,6.671799719E-2,6.804040978E-2
3.948203115E0,9.193999693E-3,2.664599940E-2,6.672099978E-2,7.243086860E-2
3.953214573E0,1.154700015E-2,2.318100072E-2,5.954800174E-2,6.493578765E-2
3.958226187E0,4.544000141E-3,3.600899875E-2,5.955199897E-2,6.974049405E-2
3.963237573E0,1.637900062E-2,3.678600118E-2,5.477499962E-2,6.798369015E-2
3.968249019E0,1.166099962E-2,3.753300011E-2,3.324399889E-2,5.147687317E-2
3.973260634E0,1.643400081E-2,2.653300017E-2,4.282199964E-2,5.298867930E-2
3.978272098E0,4.815000109E-3,3.217099980E-2,4.282400012E-2,5.377780620E-2
3.983283711E0,5.264000036E-3,2.603000030E-2,2.846799977E-2,3.893196146E-2
3.988295098E0,8.131000213E-3,2.477199957E-2,9.324000217E-3,2.768938618E-2
3.993306557E0,1.096700039E-2,1.432299986E-2,-5.034999922E-3,1.872897880E-2
3.998318250E0,1.377199963E-2,8.826999925E-3,-1.939300075E-2,2.537069923E-2
4.003329865E0,1.886600070E-2,8.314999752E-3,-3.136000037E-2,3.753018554E-2
4.008341324E0,1.214700006E-2,7.880000398E-3,-2.418499999E-2,2.818790948E-2
4.013352708E0,7.883000188E-3,7.633999921E-3,-4.333399981E-2,4.470184769E-2
4.018364322E0,2.445800044E-2,1.209800038E-2,-3.375900164E-2,4.340766742E-2
4.023375780E0,2.178999968E-2,-6.839000154E-3,-2.657599933E-2,3.504082975E-2
4.028387394E0,1.458100043E-2,-1.812100038E-2,1.649099961E-2,2.851191499E-2
4.033398867E0,1.671499945E-2,-2.661900036E-2,6.673999876E-2,7.377119913E-2
4.038410481E0,9.158999659E-3,-2.098800056E-2,1.169919968E-1,1.192120411E-1
4.043421867E0,1.063700020E-2,-8.799999952E-3,1.217890009E-1,1.225689460E-1
4.048433543E0,1.627000049E-2,7.300000172E-3,6.677699834E-2,6.911707767E-2
4.053445006E0,2.622099966E-2,1.099800039E-2,-7.368999999E-3,2.937344033E-2
4.058456387E0,4.284200072E-2,1.670699939E-2,-1.006499976E-1,1.106570507E-1
4.063468000E0,4.548700154E-2,3.156900033E-2,-1.484680027E-1,1.584563565E-1
4.068479464E0,3.240099922E-2,5.079000071E-2,-1.675820053E-1,1.780819402E-1
4.073491077E0,1.794200018E-2,5.598700047E-2,-1.532109976E-1,1.641038372E-1
4.078502537E0,-2.766000107E-3,4.748599976E-2,-9.099899977E-2,1.026810055E-1
4.083513921E0,-1.598599926E-2,3.717600182E-2,-4.075999931E-2,5.743678984E-2
4.088525544E0,-1.517300028E-2,2.272100002E-2,-1.684200019E-2,3.209543191E-2
4.093537236E0,-1.472599991E-2,1.869000029E-3,3.339700028E-2,3.654733728E-2
4.098548700E0,-1.214800030E-2,-1.829800010E-2,4.056600109E-2,4.613015460E-2
4.103560075E0,-7.311999798E-3,-3.559599817E-2,7.644700259E-2,8.464446014E-2
4.108571689E0,-4.693999887E-3,-3.850699961E-2,9.797000140E-2,1.053705074E-1
4.113583152E0,-4.040000029E-3,-5.764200166E-2,1.362349987E-1,1.479827585E-1
4.118594779E0,-2.154400013E-2,-4.846699908E-2,1.840600073E-1,1.915496809E-1
4.123606243E0,-2.428999916E-2,-6.516800076E-2,2.103410065E-1,2.215405412E-1
4.128617861E0,-4.303500056E-2,-6.309899688E-2,2.031150013E-1,2.170004572E-1
4.133629325E0,-3.110300004E-2,-7.061800361E-2,1.815380007E-1,1.972570525E-1
4.138640938E0,-3.603100032E-2,-8.505599946E-2,1.432130039E-1,1.704192492E-1
4.143652397E0,-2.242900059E-2,-7.602199912E-2,1.072909981E-1,1.333932633E-1
4.148664010E0,-1.185899973E-2,-6.969600171E-2,9.291400015E-2,1.167526443E-1
4.153675402E0,1.226300001E-2,-6.123699993E-2,8.812200278E-2,1.080085122E-1
4.158686862E0,1.953599975E-2,-3.683900088E-2,8.811900020E-2,9.748705282E-2
4.163698477E0,2.908799984E-2,-2.477500029E-2,7.615300268E-2,8.520089313E-2
4.168709954E0,3.162200004E-2,-1.765600033E-2,5.700900033E-2,6.754044235E-2
4.173721568E0,3.192299977E-2,-1.991599984E-2,2.589699998E-2,4.567690415E-2
4.178733036E0,2.761499956E-2,-8.124999702E-3,-1.239399984E-2,3.134031035E-2
4.183744650E0,1.633499935E-2,-8.115000091E-3,-5.547500029E-2,5.839658456E-2
4.188756113E0,1.443499979E-2,-5.607000086E-3,-6.266199797E-2,6.454714292E-2
4.193767737E0,5.390999839E-3,-6.740000099E-4,-6.266800314E-2,6.290306648E-2
4.198779200E0,1.043299958E-2,-2.730000066E-3,-3.874300048E-2,4.021592305E-2
4.203790814E0,1.287699956E-2,1.157900039E-2,-5.310099944E-2,5.585343776E-2
4.208802272E0,1.281700004E-2,9.215000086E-3,-2.438499965E-2,2.904857870E-2
4.213813657E0,2.901099995E-2,6.864000112E-3,-1.002100017E-2,3.145112176E-2
4.218825270E0,3.074299917E-2,2.065300010E-2,1.391700003E-2,3.956464711E-2
4.223836738E0,3.469200060E-2,2.224599943E-2,3.068099916E-2,5.137843035E-2
4.228848351E0,2.930000052E-2,3.533900157E-2,3.787299991E-2,5.951217677E-2
4.233859820E0,3.341399878E-2,3.869299963E-2,3.549199924E-2,6.223604699E-2
4.238871433E0,1.419200003E-2,4.884999990E-2,3.550099954E-2,6.203270366E-2
4.243882820E0,-4.391000140E-3,5.173999816E-2,4.268100113E-2,6.721589209E-2
4.248894294E0,-1.081699971E-2,5.685799941E-2,2.593100071E-2,6.342126125E-2
4.253905910E0,-5.382000003E-3,5.718399957E-2,3.550399840E-2,6.752414111E-2
4.258917368E0,-2.106500044E-2,5.047199875E-2,2.114300057E-2,5.863602455E-2
4.263928982E0,-2.003400028E-2,4.633700103E-2,6.781000178E-3,5.093584980E-2
4.268940445E0,-9.817999788E-3,4.005900025E-2,-1.714799926E-2,4.466733146E-2
4.273952049E0,-9.192000143E-3,4.331300035E-2,-1.714700088E-2,4.748187554E-2
4.278963512E0,-1.096600015E-2,4.420800135E-2,-1.475299988E-2,4.787746388E-2
4.283974897E0,-1.274800021E-2,4.281200096E-2,-2.192999981E-2,4.976247409E-2
4.288986510E0,-7.629999891E-3,3.920200095E-2,-7.569999900E-3,4.064872292E-2
4.293997974E0,6.434999872E-3,2.879500017E-2,-1.234699972E-2,3.198452219E-2
4.299009576E0,8.476999588E-3,4.191099852E-2,-5.156999920E-3,4.306954803E-2
4.304021040E0,1.504900027E-2,2.910899930E-2,2.117699943E-2,3.901629857E-2
4.309032653E0,2.832099982E-2,2.371099964E-2,6.835999899E-3,3.756356518E-2
4.314044127E0,2.727399953E-2,6.872000173E-3,2.120699920E-2,3.522544892E-2
4.319055740E0,3.090799972E-2,6.790000014E-3,3.797199950E-2,4.942955890E-2
4.324067199E0,3.687399998E-2,-2.635000041E-3,3.559299931E-2,5.131760614E-2
4.329078583E0,4.736300185E-2,-1.177699957E-2,3.800199926E-2,6.185550591E-2
4.334090274E0,4.366999865E-2,-2.076499909E-2,3.801599890E-2,6.150991905E-2
4.339101660E0,3.312600031E-2,-2.716200054E-2,4.041599855E-2,5.889447435E-2
4.344113274E0,3.688099980E-2,-3.574899957E-2,3.563699871E-2,6.251555641E-2
4.349124751E0,4.761200026E-2,-2.782999910E-2,4.282800108E-2,6.982584833E-2
4.354136365E0,4.409199953E-2,-2.020799927E-2,4.044799879E-2,6.315463770E-2
4.359147833E0,3.835900128E-2,-2.441900037E-2,4.763599858E-2,6.585505993E-2
4.364159446E0,3.279799968E-2,-3.772899881E-2,5.003299937E-2,7.072826281E-2
4.369170910E0,1.353599969E-2,-3.659199923E-2,5.002800003E-2,6.344287574E-2
4.374182513E0,6.448000204E-3,-1.924099959E-2,3.088000044E-2,3.695087549E-2
4.379193977E0,-4.220000119E-4,-1.859799959E-2,4.044499993E-2,4.451810522E-2
4.384205586E0,-2.101599984E-2,-1.565299928E-2,3.803599998E-2,4.618902392E-2
4.389216973E0,-2.486900054E-2,3.448999953E-3,2.366599999E-2,3.450278748E-2
4.394228433E0,-4.026399925E-2,-1.509399991E-2,4.996600002E-2,6.592131391E-2
4.399240125E0,-3.198599815E-2,-1.695499942E-2,4.755600169E-2,5.976746088E-2
4.404251511E0,-3.561700135E-2,-9.592999704E-3,6.429100037E-2,7.412104395E-2
4.409263144E0,-3.229700029E-2,-1.417899970E-2,5.470699817E-2,6.509221082E-2
4.414274607E0,-1.985199936E-2,-2.112899907E-2,5.469899997E-2,6.190732653E-2
4.419285992E0,-1.009699982E-2,-1.400099974E-2,6.187599897E-2,6.423874725E-2
4.424297605E0,-2.900999971E-3,-1.881499961E-2,4.751800001E-2,5.118965067E-2
4.429309298E0,-9.851000272E-3,-1.878399961E-2,3.794400021E-2,4.346985162E-2
4.434320669E0,-9.568000212E-3,-1.173000038E-2,3.794100136E-2,4.084922424E-2
4.439332131E0,-1.852199994E-2,-1.637499966E-2,2.596800029E-2,3.585445767E-2
4.444343720E0,-1.674000057E-3,-1.617800072E-2,2.835899964E-2,3.269193852E-2
4.449355184E0,7.759000175E-3,-2.044999972E-2,1.639300026E-2,2.733377087E-2
4.454366797E0,1.923100092E-2,-2.215299942E-2,1.400300022E-2,3.250647312E-2
4.459378276E0,1.648899913E-2,-2.142399922E-2,9.217999876E-3,2.856302429E-2
4.464389889E0,1.853499934E-2,-3.226099908E-2,1.878800057E-2,4.168101760E-2
4.469401377E0,2.284500003E-2,-3.128499910E-2,2.836100012E-2,4.801032725E-2
4.474412990E0,4.319399968E-2,-3.039800003E-2,-7.519999985E-3,5.335082393E-2
4.479424454E0,3.926200047E-2,-3.674000129E-2,-8.168499917E-2,9.779453699E-2
4.484435842E0,4.358899966E-2,-4.342899844E-2,-1.893299967E-1,1.990776895E-1
4.489447456E0,7.918699831E-2,-3.445300087E-2,-1.701149940E-1,1.907791948E-1
4.494458919E0,1.228400022E-1,1.095299982E-2,-1.101860031E-1,1.653801367E-1
4.499470533E0,1.221000031E-1,5.734699965E-2,3.348800167E-2,1.389911342E-1
4.504481996E0,6.294000149E-2,1.193479970E-1,2.058310062E-1,2.461133708E-1
4.509493610E0,-3.445700184E-2,1.362109929E-1,2.704209983E-1,3.047429013E-1
4.514505059E0,-1.163749993E-1,1.090169996E-1,2.081290036E-1,2.621936857E-1
4.519516444E0,-1.518689990E-1,7.626099885E-2,7.642500103E-2,1.863349500E-1
4.524528134E0,-1.408279985E-1,2.844000049E-2,-2.894400060E-2,1.465575449E-1
4.529539506E0,-9.895399958E-2,-6.345999893E-3,-1.055700034E-1,1.448350488E-1
4.534551119E0,-4.306900129E-2,-1.711199991E-2,-9.601700306E-2,1.066162478E-1
4.539562583E0,2.242800035E-2,-1.624500006E-2,-7.686100155E-2,8.169778936E-2
4.544574192E0,7.231099904E-2,-1.356500015E-2,-8.640000224E-2,1.134806160E-1
4.549585656E0,1.119880006E-1,7.232999895E-3,-1.007080004E-1,1.507837189E-1
4.554597245E0,1.323619932E-1,2.489699982E-2,-1.150079966E-1,1.771056101E-1
4.559608709E0,1.270039976E-1,3.743600100E-2,-1.269190013E-1,1.834118384E-1
4.564620317E0,8.249200135E-2,4.989499971E-2,-1.173150018E-1,1.518461423E-1
4.569631781E0,5.763399974E-2,5.551699921E-2,-5.268200114E-2,9.580818531E-2
4.574643403E0,-1.494999975E-3,4.980500042E-2,7.137000095E-3,5.033596987E-2
4.579654790E0,-2.895200066E-2,4.232399911E-2,7.412199676E-2,9.013106926E-2
4.584666480E0,-3.486699983E-2,3.299099952E-2,1.004249975E-1,1.113072048E-1
4.589677858E0,-1.280899998E-2,5.477000028E-3,8.844500035E-2,8.953539019E-2
4.594689319E0,-7.780999877E-3,-5.610299855E-2,8.363500237E-2,1.010094254E-1
4.599701009E0,1.687000040E-3,-1.136479974E-1,1.003549993E-1,1.516240059E-1
4.604712625E0,2.482200041E-2,-1.602649987E-1,1.386169940E-1,2.133440239E-1
4.609724011E0,3.109700046E-2,-1.755709946E-1,1.816679984E-1,2.545495222E-1
4.614735459E0,3.042599931E-2,-1.604920030E-1,2.342939973E-1,2.856170541E-1
4.619747072E0,1.144899987E-2,-1.322900057E-1,2.701680064E-1,3.010356738E-1
4.624758536E0,1.720000000E-4,-8.442900330E-2,2.629689872E-1,2.761901056E-1
4.629770149E0,-3.821999999E-3,-3.380500153E-2,2.198850065E-1,2.225012403E-1
4.634781545E0,-3.326800093E-2,1.023999997E-3,1.480779946E-1,1.517725303E-1
4.639793004E0,-4.811099917E-2,2.753899992E-2,6.431099772E-2,8.490564873E-2
4.644804634E0,-6.722199917E-2,4.836700112E-2,1.643300056E-2,8.442871240E-2
4.649816097E0,-6.499800086E-2,6.391099840E-2,-3.143600002E-2,9.642394894E-2
4.654827683E0,-4.904799908E-2,6.272199750E-2,-8.408199996E-2,1.157995592E-1
4.659839146E0,-3.828300163E-2,5.478600040E-2,-8.647400141E-2,1.092924836E-1
4.664850750E0,-3.265300021E-2,5.180500075E-2,-4.578800127E-2,7.646252406E-2
4.669862213E0,-2.039499953E-2,2.816299908E-2,6.864000112E-3,3.544326481E-2
4.674873827E0,3.050999949E-3,1.214199979E-2,4.038099945E-2,4.227720279E-2
4.679885213E0,7.238000166E-3,-5.710999947E-3,7.150299847E-2,7.209495792E-2
4.684896673E0,2.535600029E-2,-1.844700053E-2,8.827199787E-2,9.367584634E-2
4.689908288E0,2.905300073E-2,-1.699499972E-2,6.675499678E-2,7.476052743E-2
4.694919752E0,3.977600113E-2,-2.040999942E-2,5.002700165E-2,6.709246780E-2
4.699931365E0,2.475699969E-2,-5.212999880E-3,4.047499970E-2,4.773164570E-2
4.704942834E0,1.721400023E-2,4.887000192E-3,4.527800158E-2,4.868574742E-2
4.709954447E0,2.162400074E-2,1.926900074E-2,4.769299924E-2,5.579887073E-2
4.714965916E0,1.197099965E-2,1.929200068E-2,4.292500019E-2,4.855967220E-2
4.719977300E0,-1.968000084E-3,3.330700099E-2,5.729800090E-2,6.630452659E-2
4.724988932E0,3.074999899E-3,3.071100079E-2,5.013599992E-2,5.887477967E-2
4.730000395E0,-8.344000205E-3,1.658299938E-2,4.057500139E-2,4.462005094E-2
4.735012009E0,-8.510000189E-4,-1.104800031E-2,4.297500104E-2,4.438055009E-2
4.740023496E0,1.650999999E-3,-3.791199997E-2,3.819200024E-2,5.383933901E-2
4.745035110E0,-5.039999960E-4,-4.301799834E-2,3.579900041E-2,5.596758551E-2
4.750046583E0,2.226999961E-3,-3.422199935E-2,3.819400072E-2,5.133114512E-2
4.755058197E0,7.373000029E-3,-1.408400014E-2,2.862999961E-2,3.274747421E-2
4.760069578E0,2.182699926E-2,2.163200080E-2,1.907899976E-2,3.617139184E-2
4.765081269E0,2.661800012E-2,3.776400164E-2,9.534999728E-3,4.717577736E-2
4.770092655E0,2.660899982E-2,5.577600002E-2,-2.153900079E-2,6.544409527E-2
4.775104127E0,2.665499970E-2,5.246900022E-2,-3.347200155E-2,6.770420874E-2
4.780115740E0,2.663300000E-2,5.865199864E-2,-5.257999897E-2,8.315064597E-2
4.785127204E0,2.184499986E-2,4.857800156E-2,-6.212300062E-2,8.183088329E-2
4.790138802E0,2.160700038E-2,3.423000127E-2,-5.252199993E-2,6.631075274E-2
4.795150266E0,2.589999931E-3,1.122799981E-2,-9.434999898E-3,1.489279364E-2
4.800161956E0,-1.906999969E-3,-1.088599954E-2,4.560299963E-2,4.692307758E-2
4.805173266E0,-2.261099964E-2,-4.142300040E-2,1.413030028E-1,1.489753700E-1
4.810184956E0,-2.667099983E-2,-3.847699985E-2,1.939309984E-1,1.995020148E-1
4.815196420E0,-3.096999973E-2,-3.347299993E-2,2.011020035E-1,2.062076584E-1
4.820207804E0,-5.420599878E-2,-3.142299876E-2,1.843470037E-1,1.947036541E-1
4.825219418E0,-3.521800041E-2,-2.999100089E-2,9.821400046E-2,1.085622290E-1
4.830231110E0,6.376999896E-3,-8.341000415E-3,-1.181500033E-2,1.580609529E-2
4.835242496E0,4.459499940E-2,-1.535000047E-3,-9.311100096E-2,1.032508048E-1
4.840253958E0,8.441399783E-2,1.895900071E-2,-1.504579931E-1,1.735591382E-1
4.845265648E0,8.642800152E-2,2.983899973E-2,-1.647360027E-1,1.884094370E-1
4.850277035E0,6.798099726E-2,3.854700178E-2,-1.622799933E-1,1.801168608E-1
4.855288663E0,5.953399837E-2,3.589700162E-2,-1.024049968E-1,1.237726749E-1
4.860300127E0,3.042900003E-2,1.985199936E-2,-4.494899884E-2,5.779652600E-2
4.865311740E0,6.635999773E-3,2.302000066E-3,2.923900075E-2,3.007083076E-2
4.870323127E0,-1.654900052E-2,-3.309800103E-2,7.229500264E-2,8.121523562E-2
4.875334587E0,-2.981299907E-2,-6.035299972E-2,8.422499895E-2,1.078199886E-1
4.880346202E0,-4.261400178E-2,-7.744300365E-2,1.128930002E-1,1.433813149E-1
4.885357665E0,-3.633800149E-2,-9.408300370E-2,1.224130020E-1,1.586095993E-1
4.890369279E0,-5.077999830E-2,-7.319500297E-2,1.486819983E-1,1.733275895E-1
4.895380747E0,-4.597000033E-2,-7.626199722E-2,1.797380000E-1,2.005863450E-1
4.900392361E0,-3.885700181E-2,-6.554300338E-2,1.916580051E-1,2.062487401E-1
4.905403824E0,-3.434000164E-2,-5.067899823E-2,1.772679985E-1,1.875407685E-1
4.910415219E0,-1.162999962E-2,-3.644200042E-2,1.461469978E-1,1.510702527E-1
4.915426832E0,-8.303999901E-3,-2.972500026E-2,9.828300029E-2,1.030149513E-1
4.920438530E0,-1.461500023E-2,-1.173099969E-2,6.239299849E-2,6.514676389E-2
4.925449993E0,1.626900025E-2,-1.291699987E-2,2.890899964E-2,3.559858866E-2
4.930461359E0,2.991499938E-2,-1.407200005E-2,1.457499992E-2,3.612975223E-2
4.935472972E0,3.380100057E-2,-1.281400025E-2,5.028000101E-3,3.649639745E-2
4.940484440E0,3.060599975E-2,-4.571999889E-3,2.661000006E-3,3.105980240E-2
4.945496053E0,3.917200118E-2,-1.037999988E-3,5.084000062E-3,3.951417692E-2
4.950507512E0,3.831800073E-2,2.450000029E-3,7.503000088E-3,3.912245763E-2
4.955519125E0,3.511400148E-2,1.255000010E-3,1.949300058E-2,4.018140362E-2
4.960530589E0,3.427299857E-2,7.125000004E-3,3.148600087E-2,4.708261151E-2
4.965541973E0,4.030299932E-2,2.436700091E-2,3.631100059E-2,5.946907811E-2
4.970553587E0,5.305900052E-2,2.472399920E-2,4.114599898E-2,7.155086935E-2
4.975565055E0,7.702799886E-2,1.797799952E-2,2.205999941E-2,8.211677447E-2
4.980576669E0,7.704699785E-2,-1.416600030E-2,-4.215000197E-3,7.845177925E-2
4.985588132E0,7.717999816E-2,-2.910000086E-2,-1.135499962E-2,8.326162491E-2
4.990599751E0,7.975500077E-2,-4.131900147E-2,6.419999991E-4,8.982500873E-2
4.995611214E0,4.988399893E-2,-4.399999976E-2,1.262800023E-2,6.770435524E-2
5.000622828E0,2.800500020E-2,-2.808300033E-2,3.896699846E-2,5.560001720E-2
5.005634296E0,-4.761000164E-3,-1.150000026E-3,4.855199903E-2,4.879842449E-2
5.010645681E0,-2.952300012E-2,2.491600066E-2,5.096099898E-2,6.394871416E-2
5.015657371E0,-5.116900057E-2,4.774799943E-2,2.705099992E-2,7.503262401E-2
5.020668758E0,-6.520500034E-2,8.618900180E-2,7.941000164E-3,1.083664874E-1
5.025680371E0,-6.972300261E-2,1.095660031E-1,-4.226100072E-2,1.365723190E-1
5.030691835E0,-6.506499648E-2,1.301299930E-1,-6.852100044E-2,1.608178981E-1
5.035703448E0,-5.626799911E-2,1.248390004E-1,-7.323899865E-2,1.552894545E-1
5.040714911E0,-3.874899819E-2,1.221529990E-1,-6.359100342E-2,1.430617201E-1
5.045726524E0,-2.906999923E-2,1.058930010E-1,-2.762099914E-2,1.132312329E-1
5.050737988E0,-8.426000364E-3,8.556599915E-2,5.954000168E-3,8.618577499E-2
5.055749368E0,-1.171599980E-2,6.582000107E-2,4.909300059E-2,8.294371525E-2
5.060761058E0,-5.555000156E-3,3.971600160E-2,7.068300247E-2,8.126687916E-2
5.065772683E0,6.089999806E-4,1.428200025E-2,8.986800164E-2,9.099782487E-2
5.070784070E0,9.084999561E-3,3.409000114E-3,7.554999739E-2,7.617060197E-2
5.075795522E0,2.913700044E-2,-4.958000034E-3,3.730399907E-2,4.759343343E-2
5.080807135E0,5.791199952E-2,-1.785599999E-2,1.460999949E-3,6.061988902E-2
5.085818603E0,5.795399845E-2,-3.728000075E-2,-2.242900059E-2,7.246740273E-2
5.090830216E0,6.025400013E-2,-6.534200162E-2,-2.480000071E-2,9.227763403E-2
5.095841680E0,6.939200312E-2,-5.994100124E-2,-1.280799974E-2,9.258627643E-2
5.100853065E0,6.898000091E-2,-6.165599823E-2,3.969999962E-3,9.260379875E-2
5.105864678E0,6.628300250E-2,-4.467400163E-2,4.229199886E-2,9.043127783E-2
5.110876361E0,5.694999918E-2,-3.986199945E-2,5.428700149E-2,8.820067992E-2
5.115887825E0,5.047399923E-2,-3.071700037E-2,8.064399660E-2,9.997306086E-2
5.120899438E0,3.739799932E-2,-2.893500030E-2,6.870800257E-2,8.340643987E-2
5.125910829E0,4.112900048E-2,-1.329100039E-2,4.242400080E-2,6.056435599E-2
5.130922290E0,3.087200038E-2,-2.764000092E-3,3.049799986E-2,4.348388322E-2
5.135933904E0,1.853800006E-2,5.057999864E-3,2.096600085E-2,2.843965543E-2
5.140945358E0,4.127999768E-3,5.735000130E-3,9.037000127E-3,1.147161627E-2
5.145956743E0,-9.953999892E-3,6.585999858E-3,3.538500145E-2,3.734375230E-2
5.150968437E0,-2.379100025E-2,2.771999920E-3,4.258399829E-2,4.885788152E-2
5.155980053E0,-4.666800052E-2,-1.257499959E-2,7.369600236E-2,8.813134319E-2
5.160991516E0,-5.493199825E-2,-2.287800051E-2,8.086799830E-2,1.004019944E-1
5.166002892E0,-4.669699818E-2,-3.299000114E-2,8.564899862E-2,1.029791279E-1
5.171014582E0,-5.258300155E-2,-4.286700115E-2,6.888499856E-2,9.668347773E-2
5.176025950E0,-5.817800015E-2,-5.269800127E-2,4.732999951E-2,9.166181262E-2
5.181037563E0,-5.884400010E-2,-4.604199901E-2,4.970899969E-2,8.974110915E-2
5.186049036E0,-4.318799824E-2,-2.346500009E-2,3.057399951E-2,5.788418495E-2
5.191060649E0,-1.872199960E-2,-1.775900088E-2,1.623900048E-2,3.048935090E-2
5.196072113E0,-1.350499969E-2,-5.092000123E-3,-4.809999955E-4,1.444108178E-2
5.201083721E0,-1.088900026E-2,-6.618000101E-3,-1.002399996E-2,1.621261321E-2
5.206095185E0,-6.144999992E-3,-7.911000401E-3,1.967000077E-3,1.020852788E-2
5.211106798E0,-1.602999982E-3,-6.601000205E-3,4.385999870E-3,8.085778101E-3
5.216118185E0,9.645000100E-3,-1.907099970E-2,1.158700045E-2,2.431023726E-2
5.221129654E0,1.127700042E-2,-8.689999813E-4,1.879600063E-2,2.193662552E-2
5.226141270E0,2.453700081E-2,-1.702000038E-3,4.754500091E-2,5.353025616E-2
5.231152733E0,3.044000082E-2,1.368200034E-2,5.237900093E-2,6.210757218E-2
5.236164356E0,1.532899961E-2,1.002699975E-2,4.045400023E-2,4.440771428E-2
5.241175819E0,1.215200033E-2,-6.660000072E-4,3.331099823E-2,3.546459180E-2
5.246187433E0,1.579199918E-2,-1.872999943E-3,3.335500136E-2,3.695201595E-2
5.251198901E0,3.071999922E-2,8.228000253E-3,-1.682499982E-2,3.597914618E-2
5.256210515E0,2.823800035E-2,-1.018499956E-2,-1.100739986E-1,1.140938388E-1
5.261221959E0,3.162800148E-2,-3.109999932E-2,-1.458670050E-1,1.524622038E-1
5.266233344E0,5.735599995E-2,-3.589100018E-2,-1.050449982E-1,1.249492948E-1
5.271245034E0,7.539399713E-2,-2.253000066E-2,-3.308200091E-2,8.535967735E-2
5.276256430E0,6.835900247E-2,4.385999870E-3,1.010989994E-1,1.221196049E-1
5.281268043E0,1.939399913E-2,4.957300052E-2,1.897780001E-1,1.971022550E-1
5.286279507E0,-3.282799944E-2,8.969499916E-2,1.420010030E-1,1.711349038E-1
5.291291120E0,-4.484299943E-2,1.018000022E-1,-1.111099962E-2,1.117926176E-1
5.296302584E0,-5.166599900E-2,7.951000333E-2,-1.786209941E-1,2.022292650E-1
5.301314197E0,-4.778100178E-2,3.756000102E-2,-2.456540018E-1,2.530605983E-1
5.306325646E0,-3.372199833E-2,1.352799963E-2,-2.073969990E-1,2.105556818E-1
5.311337260E0,-7.408000063E-3,6.705999840E-3,-1.404040009E-1,1.407591289E-1
5.316348665E0,2.207100019E-2,9.204999544E-3,-5.184400082E-2,5.709344522E-2
5.321360125E0,5.985999852E-2,2.298299968E-2,8.039999753E-3,6.462259120E-2
5.326371740E0,7.824599743E-2,2.682299912E-2,8.116000332E-3,8.311304866E-2
5.331383214E0,9.892000258E-2,3.730700165E-2,-1.811300032E-2,1.072616430E-1
5.336394827E0,9.391699731E-2,2.890199982E-2,-2.282200009E-2,1.008789952E-1
5.341406291E0,5.462399870E-2,4.513000138E-3,-8.434999734E-3,5.545536606E-2
5.346417671E0,2.124500088E-2,-7.437000051E-3,4.420499876E-2,4.960585598E-2
5.351429361E0,-8.958999999E-3,-4.213900119E-2,1.135540009E-1,1.214515138E-1
5.356440748E0,-3.627499938E-2,-6.892900169E-2,1.828739941E-1,1.987711764E-1
5.361452361E0,-5.141000077E-2,-9.748099744E-2,1.995310038E-1,2.279433143E-1
5.366463824E0,-4.775699973E-2,-9.994199872E-2,2.066300064E-1,2.344463557E-1
5.371475443E0,-3.034400009E-2,-1.050200015E-1,1.898159981E-1,2.190435395E-1
5.376486906E0,4.180000105E-4,-1.173420027E-1,1.706269979E-1,2.070818504E-1
5.381498534E0,1.651000045E-2,-1.063259989E-1,1.514589936E-1,1.857891948E-1
5.386509997E0,1.354900002E-2,-9.825800359E-2,1.490540057E-1,1.790399601E-1
5.391521602E0,2.234699950E-2,-6.512700021E-2,1.490759999E-1,1.642089166E-1
5.396533065E0,1.003499981E-2,-4.710299894E-2,1.251820028E-1,1.341265356E-1
5.401544679E0,-1.121400017E-2,-2.523100004E-2,9.172700346E-2,9.579248575E-2
5.406556074E0,-1.576800086E-2,5.264999811E-3,7.504799962E-2,7.686710819E-2
5.411567534E0,-3.186199814E-2,2.543600090E-2,6.077399850E-2,7.318234733E-2
5.416579226E0,-4.058400169E-2,4.949700087E-2,2.737900056E-2,6.961769861E-2
5.421590608E0,-3.756900132E-2,6.591600180E-2,8.360999636E-3,7.632991201E-2
5.426602221E0,-3.227199987E-2,6.789500266E-2,-1.304300036E-2,7.629766196E-2
5.431613666E0,-2.465100028E-2,6.525500119E-2,-4.880699888E-2,8.513524613E-2
5.436625279E0,-5.425000098E-3,7.214400172E-2,-6.063099951E-2,9.439441568E-2
5.441636738E0,1.797500066E-2,6.281299889E-2,-6.767100096E-2,9.406347776E-2
5.446648122E0,2.912499942E-2,4.245899990E-2,-6.755399704E-2,8.493865304E-2
5.451659722E0,2.141799964E-2,3.917900100E-2,-9.138000011E-2,1.017056009E-1
5.456671185E0,1.608799957E-2,3.636499867E-2,-8.410800248E-2,9.303436430E-2
5.461682809E0,1.538500004E-2,3.858400136E-2,-7.684099674E-2,8.734965465E-2
5.466694272E0,9.763999842E-3,3.402300179E-2,-6.719099730E-2,7.594425892E-2
5.471705886E0,1.806600019E-2,3.449799865E-2,-5.036000162E-2,6.366020765E-2
5.476717349E0,2.356100082E-2,3.966699913E-2,-4.309099913E-2,6.313022878E-2
5.481728963E0,2.438200079E-2,2.619400062E-2,-2.148099989E-2,4.173776452E-2
5.486740353E0,2.996199951E-2,2.244599909E-2,1.448099967E-2,4.014029946E-2
5.491751813E0,4.954300076E-2,1.423600037E-2,2.172599919E-2,5.593917832E-2
5.496763433E0,4.325899854E-2,1.783600077E-2,4.093199968E-2,6.216825940E-2
5.501774897E0,4.674300179E-2,7.395999972E-3,3.619699925E-2,5.958046481E-2
5.506786510E0,4.797200114E-2,4.155000206E-3,1.949499920E-2,5.194835814E-2
5.511797969E0,3.297299892E-2,1.029099990E-2,1.475400012E-2,3.756066900E-2
5.516809582E0,1.604199968E-2,4.691999871E-3,9.996999986E-3,1.947564185E-2
5.521821032E0,6.395000033E-3,6.211999804E-3,-1.937999972E-3,9.123640221E-3
5.526832645E0,-1.932400092E-2,1.239500009E-2,5.260000005E-3,2.355250812E-2
5.531844104E0,-2.807700075E-2,1.613900065E-2,1.484899968E-2,3.562692949E-2
5.536855717E0,-2.501999959E-2,3.614100069E-2,1.727899909E-2,4.723066927E-2
5.541867170E0,-2.210500091E-2,3.466999903E-2,3.406700119E-2,5.339663350E-2
5.546878784E0,-2.159499936E-2,3.330300003E-2,3.649400175E-2,5.391888326E-2
5.551890171E0,-2.102800086E-2,1.116300002E-2,5.564599857E-2,6.052492500E-2
5.556901630E0,-2.964000031E-2,-1.031600032E-2,5.562699959E-2,6.386949635E-2
5.561913236E0,-3.566899896E-2,-3.358500078E-2,6.755000353E-2,8.344598697E-2
5.566924700E0,-4.590800032E-2,-4.696200043E-2,1.057740003E-1,1.245034663E-1
5.571936298E0,-6.029599905E-2,-5.991699919E-2,1.367959976E-1,1.610552677E-1
5.576947762E0,-5.317899957E-2,-6.318800151E-2,1.486739963E-1,1.700725925E-1
5.581959375E0,-5.104700103E-2,-4.780599847E-2,1.222819984E-1,1.408690773E-1
5.586970815E0,-4.000800103E-2,-3.529699892E-2,7.916899770E-2,9.546857324E-2
5.591982200E0,-3.438799828E-2,-9.348999709E-3,1.455700025E-2,3.849473312E-2
5.596993890E0,-1.301399991E-2,-5.301000085E-3,-4.045199975E-2,4.282323061E-2
5.602005520E0,-1.775000012E-3,-8.626000024E-3,-9.305500239E-2,9.347080812E-2
5.607016984E0,2.296099998E-2,-5.040999968E-3,-1.264909953E-1,1.286568735E-1
5.612028382E0,7.268700004E-2,7.629999891E-3,-1.503160000E-1,1.671422051E-1
5.617040073E0,1.120299995E-1,1.996999979E-2,-1.549720019E-1,1.922650334E-1
5.622051459E0,1.205469966E-1,3.216300160E-2,-1.620189995E-1,2.044900810E-1
5.627063054E0,8.974699676E-2,3.753099963E-2,-1.356009990E-1,1.668853807E-1
5.632074746E0,3.921699896E-2,1.548300032E-2,-8.771999925E-2,9.732674132E-2
5.637086133E0,6.362999789E-3,4.023000132E-3,-4.946300015E-2,5.003259618E-2
5.642097603E0,-4.747999832E-3,-1.586900093E-2,3.900599852E-2,4.237731249E-2
5.647109217E0,-3.435700014E-2,-1.633300073E-2,1.322399974E-1,1.376030061E-1
5.652120680E0,-4.919800162E-2,-4.693099856E-2,1.799699962E-1,1.923854504E-1
5.657132065E0,-5.185699835E-2,-5.350000039E-2,2.133370042E-1,2.259736172E-1
5.662143678E0,-5.194000155E-2,-6.018200144E-2,2.036350071E-1,2.186020430E-1
5.667155137E0,-4.482100159E-2,-6.233900040E-2,1.819770038E-1,1.975112733E-1
5.672166750E0,-4.703599960E-2,-5.553599820E-2,1.387970001E-1,1.567202590E-1
5.677178214E0,-3.300699964E-2,-4.914800078E-2,9.564299881E-2,1.124836487E-1
5.682189793E0,-1.740000024E-2,-2.698500082E-2,3.817199916E-2,4.988037487E-2
5.687201257E0,-1.405899972E-2,-1.033100020E-2,1.183800027E-2,2.108372094E-2
5.692212850E0,2.802999923E-3,-8.231000043E-3,2.274000086E-3,8.987616295E-3
5.697224237E0,1.897200011E-2,8.159999852E-4,-9.664000012E-3,2.130717110E-2
5.702235682E0,4.381899908E-2,-6.589999888E-3,-7.240000181E-3,4.489933609E-2
5.707247298E0,5.625599995E-2,-2.108999994E-3,-4.805000033E-3,5.650020741E-2
5.712259000E0,6.825300306E-2,-4.730999935E-3,-1.193800010E-2,6.945049052E-2
5.717270464E0,7.519400120E-2,-1.190700009E-2,-2.321999986E-3,7.616630588E-2
5.722281848E0,8.652099967E-2,-4.927999806E-3,1.448700018E-2,8.786376807E-2
5.727293462E0,7.435999811E-2,-5.175999831E-3,1.932599954E-2,7.700450994E-2
5.732304925E0,6.724800169E-2,-3.237999976E-3,-4.546999931E-3,6.747928263E-2
5.737316547E0,3.962900117E-2,-6.072999910E-3,-1.886699907E-2,4.430917191E-2
5.742328011E0,3.157399967E-2,1.900500059E-2,-4.034899920E-2,5.464566991E-2
5.747339624E0,2.155699953E-2,2.945500053E-2,-4.747200012E-2,5.988231860E-2
5.752351093E0,4.883000161E-3,2.805499919E-2,-4.025100172E-2,4.930588007E-2
5.757362478E0,-6.593999919E-3,3.839699924E-2,-5.935199931E-2,7.099626897E-2
5.762374086E0,-1.999700069E-2,4.620200023E-2,-8.084899932E-2,9.524214169E-2
5.767385550E0,-1.450499985E-2,4.451600090E-2,-1.095229983E-1,1.191106902E-1
5.772397163E0,-1.851800084E-2,5.228300020E-2,-1.070870012E-1,1.205987325E-1
5.777408641E0,-8.539999835E-3,6.007299945E-2,-9.028699994E-2,1.087816125E-1
5.782420254E0,-3.557000076E-3,6.781999767E-2,-7.826600224E-2,1.036232186E-1
5.787431717E0,-5.731000099E-3,8.709300309E-2,-4.708800092E-2,9.917315857E-2
5.792443126E0,-8.069999749E-4,7.581000030E-2,-3.267600015E-2,8.255621346E-2
5.797454816E0,-7.329999935E-4,6.962800026E-2,-3.263200074E-2,7.689891535E-2
5.802466432E0,-1.701400056E-2,4.984899983E-2,-1.108300034E-2,5.382594073E-2
5.807477818E0,-1.430100016E-2,5.392599851E-2,-1.824299991E-2,5.869700986E-2
5.812489280E0,-1.178999990E-2,4.402000085E-2,-1.344900019E-2,4.751463120E-2
5.817500893E0,-1.184799988E-2,2.275599912E-2,-3.886000020E-3,2.594824836E-2
5.822512357E0,-7.379000075E-3,1.367999986E-2,8.880000096E-4,1.556857676E-2
5.827523737E0,1.540600043E-2,4.881000146E-3,5.669000093E-3,1.712619554E-2
5.832535427E0,2.132599987E-2,8.750000270E-4,1.284500025E-2,2.491100012E-2
5.837546814E0,2.469499968E-2,-1.930399984E-2,2.718400024E-2,4.149044815E-2
5.842558442E0,1.873300038E-2,-2.965800092E-2,2.236600034E-2,4.160240730E-2
5.847569905E0,1.776899956E-2,-3.047999926E-2,1.754599996E-2,3.940342390E-2
5.852581528E0,2.160000056E-2,-2.436500043E-2,2.709200047E-2,4.235787718E-2
5.857592991E0,1.842099987E-2,-2.770400047E-2,4.141800106E-2,5.312528296E-2
5.862604605E0,8.545000106E-3,-2.869500034E-2,2.702200040E-2,4.033123575E-2
5.867616068E0,1.402999973E-3,-2.269900031E-2,1.980300061E-2,3.015579310E-2
5.872627682E0,-7.759999717E-4,-1.457899995E-2,-1.766999951E-3,1.470617912E-2
5.877639160E0,-1.224199962E-2,-9.097999893E-3,-1.615500078E-2,2.221765529E-2
5.882650774E0,-2.117599919E-2,5.590000190E-3,-4.728600010E-2,5.211177266E-2
5.887662242E0,-1.372000016E-2,1.988499984E-2,-5.685999990E-2,6.177953716E-2
5.892673856E0,-1.955999993E-3,2.907600068E-2,-3.052200004E-2,4.219990803E-2
5.897685242E0,-2.207000041E-3,2.412699908E-2,-2.811999992E-2,3.711761481E-2
5.902696721E0,-4.767999984E-3,2.629300021E-2,-2.332399972E-2,3.546920702E-2
5.907708336E0,4.422000144E-3,9.848999791E-3,-1.790000009E-3,1.094353609E-2
5.912719800E0,4.052999895E-3,-1.519000041E-3,-1.801999984E-3,4.688429718E-3
5.917731417E0,3.708000062E-3,-7.887000218E-3,1.732099988E-2,1.938997353E-2
5.922742881E0,1.266300026E-2,-2.107499912E-2,2.926100045E-2,3.821927931E-2
5.927754509E0,4.079999926E-4,-3.373200074E-2,4.835600033E-2,5.896030110E-2
5.932765896E0,7.162999827E-3,-3.677299991E-2,6.505899876E-2,7.507486536E-2
5.937777355E0,2.062000101E-3,-3.511999920E-2,8.894199878E-2,9.564698289E-2
5.942788966E0,2.504100092E-2,-4.987899959E-2,1.008630022E-1,1.152749389E-1
5.947800429E0,4.041999951E-2,-4.807899892E-2,8.408299834E-2,1.049538809E-1
5.952812043E0,6.015399843E-2,-5.354899913E-2,6.970799714E-2,1.065138662E-1
5.957823501E0,5.612900108E-2,-4.273999855E-2,5.055899918E-2,8.679507265E-2
5.962835115E0,4.290299863E-2,-4.169499874E-2,2.694000024E-3,5.988654145E-2
5.967846578E0,3.684400022E-2,-3.135000169E-2,-1.405400038E-2,5.037675937E-2
5.972858197E0,4.245899990E-2,-2.838199958E-2,2.708999906E-3,5.114335982E-2
5.977869583E0,4.532499984E-2,-1.166199986E-2,-2.596599981E-2,5.352187401E-2
5.982881283E0,3.359400108E-2,-2.132900059E-2,-8.813499659E-2,9.670191725E-2
5.987892747E0,1.414799970E-2,-2.199799940E-2,-1.311330050E-1,1.337159036E-1
5.992904360E0,3.374600038E-2,-1.184100006E-2,-8.312900364E-2,9.049548647E-2
5.997915747E0,4.579899833E-2,6.705000065E-3,8.110000053E-4,4.629430845E-2
6.002927207E0,3.089600056E-2,6.891100109E-2,1.589549929E-1,1.759828932E-1
6.007938822E0,-1.156799961E-2,1.275819987E-1,1.830569953E-1,2.234297396E-1
6.012950276E0,-6.241400167E-2,1.528570056E-1,2.043800056E-2,1.663685175E-1
6.017961889E0,-5.491099879E-2,1.484619975E-1,-1.781360060E-1,2.383036280E-1
6.022973352E0,-5.951799825E-2,9.878300130E-2,-2.930380106E-1,3.149154634E-1
6.027984980E0,-4.678599909E-2,4.676099867E-2,-2.572279871E-1,2.655969842E-1
6.032996367E0,-2.886099927E-2,1.069399994E-2,-1.305000037E-1,1.340804605E-1
6.038008057E0,-2.176499926E-2,-1.221999992E-3,2.017400041E-2,2.970183107E-2
6.043019467E0,7.949000224E-3,-6.225999910E-3,9.431199729E-2,9.485094893E-2
6.048031158E0,4.623499885E-2,-1.400799956E-2,8.473099768E-2,9.753584540E-2
6.053042540E0,7.688000053E-2,-2.425099909E-2,9.820000269E-4,8.062015730E-2
6.058054002E0,1.142510027E-1,-2.045799978E-2,-8.992499858E-2,1.468275408E-1
6.063065610E0,1.046440005E-1,-1.894900016E-2,-1.234230027E-1,1.629192102E-1
6.068077074E0,7.475800067E-2,-9.299999801E-4,-1.090810001E-1,1.322432915E-1
6.073088682E0,2.941700071E-2,-2.020899951E-2,-2.779500000E-2,4.523633072E-2
6.078100146E0,-2.401199937E-2,-5.720600113E-2,9.170199931E-2,1.107174754E-1
6.083111764E0,-6.914199889E-2,-9.541799873E-2,1.991759986E-1,2.314223172E-1
6.088123228E0,-9.000100195E-2,-1.304560006E-1,2.563740015E-1,3.014076593E-1
6.093134641E0,-9.423399717E-2,-1.346330047E-1,2.513689995E-1,3.003206055E-1
6.098146332E0,-7.048799843E-2,-1.392489970E-1,2.057169974E-1,2.582214633E-1
6.103157713E0,-5.448500067E-2,-1.279100031E-1,1.648859978E-1,2.156779461E-1
6.108169327E0,-5.522599816E-2,-1.126409993E-1,1.264739931E-1,1.781392054E-1
6.113180713E0,-6.292200089E-2,-1.051060036E-1,9.525299817E-2,1.551759770E-1
6.118192404E0,-6.336200237E-2,-8.386100084E-2,9.994299710E-2,1.450379725E-1
6.123203867E0,-6.146899983E-2,-6.801299751E-2,9.747400135E-2,1.338110112E-1
6.128215466E0,-6.432799995E-2,-4.106500000E-2,1.261350065E-1,1.474261363E-1
6.133226929E0,-4.857899994E-2,-2.895499952E-2,1.452479959E-1,1.558694695E-1
6.138238319E0,-3.556400165E-2,-1.268399972E-2,1.356700063E-1,1.408262499E-1
6.143249932E0,-2.063200064E-2,-6.331000011E-3,9.978800267E-2,1.020950855E-1
6.148261396E0,9.149999823E-4,1.813600026E-2,6.155300140E-2,6.417572526E-2
6.153273009E0,2.660500072E-2,3.479300067E-2,1.811000053E-3,4.383672752E-2
6.158284473E0,4.697100073E-2,6.019600108E-2,-3.635999933E-2,8.456880635E-2
6.163296086E0,5.062200129E-2,8.269800246E-2,-8.408900350E-2,1.283452653E-1
6.168307550E0,6.580799818E-2,9.086699784E-2,-1.054859981E-1,1.539961029E-1
6.173319163E0,6.892299652E-2,7.819300145E-2,-1.149360016E-1,1.551605923E-1
6.178330603E0,6.480800360E-2,7.555700094E-2,-1.028620005E-1,1.431416392E-1
6.183342216E0,6.077500060E-2,6.404899806E-2,-7.645100355E-2,1.167931111E-1
6.188353603E0,4.521699995E-2,5.552800000E-2,-5.724500120E-2,9.167838366E-2
6.193365048E0,5.335199833E-2,5.449400097E-2,-3.086300008E-2,8.227123824E-2
6.198376741E0,4.042100161E-2,3.737099841E-2,-2.365300059E-2,5.991588546E-2
6.203388127E0,4.651600122E-2,2.780099958E-2,-9.274999611E-3,5.497871921E-2
6.208399726E0,3.862199932E-2,1.155999955E-2,-4.488999955E-3,4.056406713E-2
6.213411189E0,3.568900004E-2,-1.845999970E-3,2.420599945E-2,4.316298008E-2
6.218422802E0,3.765999898E-2,1.393000013E-3,1.940299943E-2,4.238740803E-2
6.223434261E0,2.804699913E-2,1.842899993E-2,4.811000079E-2,5.865862575E-2
6.228445874E0,1.878999919E-2,2.562000044E-2,6.006899849E-2,6.795390402E-2
6.233457338E0,5.910000182E-4,2.790099941E-2,6.962399930E-2,7.500877500E-2
6.238468961E0,-5.578000098E-3,2.992600016E-2,6.243700162E-2,6.946264278E-2
6.243480348E0,-1.164100040E-2,3.179499879E-2,2.892999910E-2,4.453515113E-2
6.248491808E0,-6.039999891E-3,3.817699850E-2,1.697300002E-2,4.221430495E-2
6.253503418E0,-1.698100008E-2,2.804899961E-2,7.397999987E-3,3.361296099E-2
6.258514882E0,-2.551000006E-2,2.524700016E-2,7.389999926E-3,3.664400659E-2
6.263526485E0,-2.919599973E-2,2.497900091E-2,1.694799960E-2,4.199513754E-2
6.268537948E0,-4.205299914E-2,2.019499987E-2,1.692000031E-2,4.962438077E-2
6.273549548E0,-4.523399845E-2,1.800099947E-2,2.406099997E-2,5.430545384E-2
6.278561011E0,-4.367899895E-2,1.134300046E-2,1.683799922E-2,4.816676060E-2
6.283572401E0,-4.901500046E-2,-1.351299975E-2,7.187000010E-3,5.134904480E-2
6.288584014E0,-3.104499914E-2,-2.138799988E-2,-7.242000196E-3,3.838860608E-2
6.293595459E0,-1.837399974E-2,-4.069299996E-2,-7.319999859E-3,4.524496116E-2
6.298607072E0,-1.297300030E-2,-5.017200112E-2,2.130799927E-2,5.603177015E-2
6.303618536E0,3.951000050E-3,-5.225199834E-2,6.190599874E-2,8.110631548E-2
6.308630135E0,1.342500001E-2,-5.889499933E-2,9.053999931E-2,1.088409070E-1
6.313641599E0,2.246199921E-2,-3.970799968E-2,1.359450072E-1,1.433956472E-1
6.318653212E0,2.873400040E-2,-4.216000065E-2,1.454679966E-1,1.541559161E-1
6.323664676E0,1.135400031E-2,-3.085500002E-2,1.358589977E-1,1.397805838E-1
6.328676060E0,1.052599959E-2,-2.266800031E-2,7.841700315E-2,8.230347070E-2
6.333687688E0,3.062400036E-2,-1.984800026E-2,-5.339999916E-4,3.649736522E-2
6.338699151E0,5.962000042E-2,-1.303500030E-2,-1.057709977E-1,1.221145349E-1
6.343710760E0,8.351100236E-2,9.569000453E-3,-1.774750054E-1,1.963747204E-1
6.348722223E0,8.628299832E-2,2.929200046E-2,-2.300290018E-1,2.474189135E-1
6.353733837E0,6.397700310E-2,3.958300129E-2,-2.538950145E-1,2.648066263E-1
6.358745295E0,2.163100056E-2,2.253899910E-2,-2.180089951E-1,2.202358477E-1
6.363756909E0,-1.265299972E-2,-1.627299935E-2,-1.439120024E-1,1.453807874E-1
6.368768372E0,-2.996299975E-2,-3.698499873E-2,-4.114300013E-2,6.291595938E-2
6.373779996E0,-4.021399841E-2,-4.496999830E-2,7.357499748E-2,9.514592303E-2
6.378791382E0,-5.972100049E-2,-7.118599862E-2,1.451900005E-1,1.723780164E-1
6.383802842E0,-7.173100114E-2,-8.517300338E-2,1.880809963E-1,2.185731873E-1
6.388814462E0,-5.301300064E-2,-8.504799753E-2,1.998810023E-1,2.235977531E-1
6.393825926E0,-2.991200052E-2,-8.297400177E-2,1.829870045E-1,2.031345775E-1
6.398837616E0,-2.578499913E-2,-6.031899899E-2,1.493670046E-1,1.631372119E-1
6.403848988E0,-1.477000024E-2,-3.860000148E-2,1.133830026E-1,1.206806459E-1
6.408860601E0,-1.779000042E-3,-1.302600000E-2,7.982400060E-2,8.089939795E-2
6.413871998E0,3.838999895E-3,2.404999919E-3,3.671000153E-2,3.698845978E-2
6.418883688E0,1.154400036E-2,1.736300066E-2,2.232900076E-2,3.055031933E-2
6.423895070E0,1.419799961E-2,1.806800067E-2,2.709200047E-2,3.552481289E-2
6.428906760E0,1.444800012E-2,1.648500003E-2,1.988900080E-2,2.959851831E-2
6.433918133E0,1.458299998E-2,1.502699964E-2,4.379399866E-2,4.854265058E-2
6.438929594E0,2.161500044E-2,2.069300041E-2,3.898900002E-2,4.914825157E-2
6.443941284E0,2.140999958E-2,3.082700074E-2,3.419300169E-2,5.077256563E-2
6.448952909E0,3.513300046E-2,3.838799894E-2,2.462399937E-2,5.757002283E-2
6.453964296E0,4.148000106E-2,3.863200173E-2,1.984599978E-2,6.005735386E-2
6.458975762E0,3.370099887E-2,4.117999971E-2,7.888999768E-3,5.379392176E-2
6.463987147E0,3.770200163E-2,1.799999923E-2,1.027799957E-2,4.302415803E-2
6.468998770E0,4.155899957E-2,7.034000009E-3,-2.562200092E-2,4.932661079E-2
6.474010234E0,3.367799893E-2,-1.352000050E-3,-4.717300087E-2,5.797695687E-2
6.479021928E0,3.993700072E-2,-2.260000037E-4,-7.829099894E-2,8.788910977E-2
6.484033315E0,4.367300123E-2,7.877999917E-3,-9.265200049E-2,1.027316266E-1
6.489044943E0,2.629799955E-2,2.496499941E-2,-8.307600021E-2,9.064467876E-2
6.494056407E0,1.642799936E-2,3.466000035E-2,-5.196600035E-2,6.458838889E-2
6.499068020E0,-1.629200019E-2,2.784200013E-2,-1.716340035E-1,1.746391634E-1
6.504079497E0,6.831199676E-2,7.519999892E-2,-6.310319901E-1,6.391579939E-1
6.509091111E0,1.119149998E-1,7.427199930E-2,-2.601310015E-1,2.927617376E-1
6.514102498E0,-7.537599653E-2,-1.669999957E-2,2.302280068E-1,2.428278525E-1
6.519113948E0,-1.600989997E-1,-4.074399918E-2,3.520500064E-1,3.888842632E-1
6.524125563E0,-8.262900263E-2,4.199999967E-5,2.179339975E-1,2.330724804E-1
6.529137031E0,-4.024999961E-2,3.225199878E-2,6.951999664E-2,8.656375585E-2
6.534148721E0,-3.880999982E-2,4.486399889E-2,-9.482000023E-3,6.007414425E-2
6.539160348E0,-2.140700072E-2,7.107699662E-2,-1.427699998E-2,7.559121548E-2
6.544171733E0,-1.397600025E-2,9.182599932E-2,1.684300043E-2,9.439824891E-2
6.549183195E0,1.384199969E-2,8.174899966E-2,5.276200175E-2,9.827679649E-2
6.554194580E0,3.829199821E-2,6.241799891E-2,9.108600020E-2,1.168714813E-1
6.559206193E0,3.864900023E-2,3.184799850E-2,1.389670074E-1,1.477155015E-1
6.564217656E0,3.437000141E-2,1.589900069E-2,1.724829972E-1,1.765912216E-1
6.569229275E0,1.178199984E-2,2.337099984E-2,2.131740004E-1,2.147747043E-1
6.574240738E0,1.076500025E-2,5.110900104E-2,2.179989964E-1,2.241686366E-1
6.579252361E0,5.235000048E-3,5.674200132E-2,1.845449954E-1,1.931422152E-1
6.584263824E0,1.388600003E-2,4.101499915E-2,1.175900027E-1,1.253094565E-1
6.589275438E0,2.238100022E-2,2.799499966E-2,8.652500063E-2,9.365471110E-2
6.594286920E0,3.071299940E-2,1.985700056E-2,1.320350021E-1,1.370066808E-1
6.599298534E0,5.731299892E-2,1.856799982E-2,2.182469964E-1,2.264095888E-1
6.604309997E0,1.109419987E-1,1.445200015E-2,2.159640044E-1,2.432230223E-1
6.609321616E0,1.004540026E-1,-7.138299942E-2,5.808800086E-2,1.362378622E-1
6.614333002E0,9.550999850E-3,-8.040700108E-2,-1.668580025E-1,1.854672490E-1
6.619344457E0,5.251000170E-3,-4.249599949E-2,-3.367550075E-1,3.394663725E-1
6.624356072E0,2.198399976E-2,-2.379100025E-2,-3.702459931E-1,3.716603333E-1
6.629367765E0,2.402099967E-2,-1.668200083E-2,-3.152000010E-1,3.165538472E-1
6.634379161E0,3.033999912E-2,-2.090499923E-2,-2.194799930E-1,2.225511219E-1
