"Time (s)","Linear Acceleration x (m/s^2)","Linear Acceleration y (m/s^2)","Linear Acceleration z (m/s^2)","Absolute acceleration (m/s^2)"
4.180257300E-2,1.731348991E0,-6.167000160E-3,5.024679899E-1,1.802798226E0
4.681395800E-2,1.612630963E0,3.470699862E-2,3.305520117E-1,1.646525989E0
5.182556800E-2,1.469997048E0,8.362200111E-2,1.401199996E-1,1.479025887E0
5.683695500E-2,1.370856047E0,1.264570057E-1,-3.552899882E-2,1.377134701E0
6.184833000E-2,1.278823972E0,1.727720052E-1,-1.246810034E-1,1.296451414E0
6.685971400E-2,1.223739028E0,2.132519931E-1,-1.609369963E-1,1.252563107E0
7.187109900E-2,1.211668968E0,2.387969941E-1,-1.132640019E-1,1.240159033E0
7.688248300E-2,1.204489946E0,2.475730032E-1,-6.539700180E-2,1.231407808E0
8.189393300E-2,1.176820040E0,2.400020063E-1,9.033000097E-3,1.201077834E0
8.690532000E-2,1.159670949E0,2.189570069E-1,7.172100246E-2,1.182337846E0
9.191671800E-2,1.122722983E0,1.801799983E-1,1.035429984E-1,1.141793712E0
9.692810300E-2,1.073465943E0,1.450729966E-1,1.068810001E-1,1.088484660E0
1.019394770E-1,1.016903043E0,9.732999653E-2,1.056480035E-1,1.026998747E0
1.069508620E-1,9.672449827E-1,3.506200016E-2,7.348799706E-2,9.706661044E-1
1.119624710E-1,9.077450037E-1,-2.724000067E-2,4.387700185E-2,9.092129567E-1
1.169738570E-1,8.687589765E-1,-6.867600232E-2,9.600000456E-3,8.715220665E-1
1.219852420E-1,8.218759894E-1,-1.153440028E-1,6.544999778E-3,8.299561543E-1
1.269966260E-1,7.833340168E-1,-1.602430046E-1,-1.206999994E-3,7.995570394E-1
1.320080110E-1,7.505930066E-1,-1.780830026E-1,7.871000096E-3,7.714696170E-1
1.370193910E-1,7.093780041E-1,-1.974119991E-1,2.181199938E-2,7.366575957E-1
1.420308500E-1,6.599379778E-1,-2.022390068E-1,3.343199939E-2,6.910401211E-1
1.470422230E-1,6.326360106E-1,-2.046680003E-1,4.510600120E-2,6.664471950E-1
1.520536070E-1,5.988249779E-1,-2.047660053E-1,4.965399951E-2,6.348117758E-1
1.570649870E-1,5.819479823E-1,-1.771769971E-1,3.749199957E-2,6.094758342E-1
1.620763720E-1,5.791260004E-1,-1.482699960E-1,3.014899977E-2,5.985648488E-1
1.670877800E-1,5.736740232E-1,-1.134369969E-1,1.327100024E-2,5.849324376E-1
1.720993940E-1,5.541489720E-1,-9.143400192E-2,1.318200026E-2,5.617962487E-1
1.771105640E-1,5.652599931E-1,-4.229699820E-2,1.312800031E-2,5.669922753E-1
1.821221770E-1,5.666339993E-1,-1.320200041E-2,1.789899915E-2,5.670703274E-1
1.871335550E-1,5.610110164E-1,-1.344999997E-3,-8.395999670E-3,5.610754515E-1
1.921449390E-1,5.740770102E-1,3.794899955E-2,1.241000020E-3,5.753312787E-1
1.971563480E-1,5.796899796E-1,5.969399959E-2,-1.539499965E-2,5.829587052E-1
2.021677330E-1,5.804839730E-1,7.602299750E-2,-1.523599960E-2,5.856392019E-1
2.071791920E-1,5.881369710E-1,8.007399738E-2,-2.220699936E-2,5.939781920E-1
2.121905790E-1,5.769839883E-1,8.614099771E-2,-2.195299976E-2,5.837916824E-1
2.172019630E-1,5.522699952E-1,7.565400004E-2,-3.123700060E-2,5.583022708E-1
2.222133670E-1,5.283250213E-1,6.309500337E-2,-4.288300127E-2,5.338045142E-1
2.272247520E-1,5.120329857E-1,3.930500150E-2,-5.210699886E-2,5.161761336E-1
2.322361360E-1,5.010520220E-1,1.628799923E-2,-4.934300110E-2,5.037391780E-1
2.372475210E-1,4.718410075E-1,-3.598999931E-3,-4.177900031E-2,4.737007220E-1
2.422591390E-1,4.482130110E-1,-2.729300037E-2,-3.660099953E-2,4.505324009E-1
2.472705260E-1,4.137090147E-1,-5.474299937E-2,-2.424699999E-2,4.180189730E-1
2.522819100E-1,3.964929879E-1,-8.571399748E-2,-1.906700060E-2,4.060999006E-1
2.572932950E-1,3.471559882E-1,-1.155759990E-1,-2.826499939E-2,3.669795660E-1
2.623046700E-1,3.293490112E-1,-1.373990029E-1,-2.789000049E-2,3.579484730E-1
2.673160540E-1,3.050299883E-1,-1.607770026E-1,-5.983000156E-3,3.448598768E-1
2.723275140E-1,2.742330134E-1,-1.625030041E-1,-5.619000178E-3,3.188142800E-1
2.773389010E-1,2.649770081E-1,-1.572210044E-1,1.150900032E-2,3.083240440E-1
2.823505140E-1,2.465589941E-1,-1.452549994E-1,2.864000015E-2,2.875945097E-1
2.873619060E-1,2.262099981E-1,-1.291839927E-1,4.098299891E-2,2.637026231E-1
2.923732900E-1,2.226870060E-1,-1.068679988E-1,5.812200159E-2,2.537487712E-1
2.973846610E-1,2.099269927E-1,-7.616599649E-2,6.090600044E-2,2.314738477E-1
3.023960450E-1,2.230149955E-1,-4.893099889E-2,5.654200166E-2,2.352167698E-1
3.074074300E-1,2.242339998E-1,-2.731999941E-2,6.176000088E-2,2.341827636E-1
3.124188940E-1,2.231550068E-1,7.522000000E-3,6.220399961E-2,2.317845446E-1
3.174302030E-1,2.314790040E-1,3.192900121E-2,7.463400066E-2,2.453002741E-1
3.224415860E-1,2.374739945E-1,5.323300138E-2,7.511299849E-2,2.546951374E-1
3.274530520E-1,2.365660071E-1,6.706500053E-2,7.559499890E-2,2.572465624E-1
3.324644390E-1,2.406239957E-1,8.269000053E-2,7.369499654E-2,2.648933672E-1
3.374758100E-1,2.402029932E-1,8.410099894E-2,6.700699776E-2,2.631736949E-1
3.424871940E-1,2.376219928E-1,8.326199651E-2,5.314100161E-2,2.573339029E-1
3.474985790E-1,2.399269938E-1,8.256399632E-2,4.646199942E-2,2.579544403E-1
3.525099680E-1,2.096289992E-1,7.735300064E-2,3.257000074E-2,2.258065743E-1
3.575215810E-1,2.011869997E-1,5.152399838E-2,3.302399814E-2,2.102891241E-1
3.625327370E-1,1.652079970E-1,3.587500006E-2,3.820699826E-2,1.733218757E-1
3.675443360E-1,1.442449987E-1,2.313400060E-2,4.575100169E-2,1.530847993E-1
3.725557230E-1,1.308030039E-1,1.083299983E-2,4.131500050E-2,1.375998146E-1
3.775670890E-1,1.131210029E-1,-1.025700010E-2,4.402599856E-2,1.218189472E-1
3.825784730E-1,1.052849963E-1,-9.646999650E-3,2.997400053E-2,1.098928376E-1
3.875898580E-1,9.302499890E-2,-1.815599948E-2,2.308299951E-2,9.755057972E-2
3.926012320E-1,9.954000264E-2,-2.623200044E-2,1.852000016E-3,1.029551353E-1
3.976126920E-1,9.645000100E-2,-2.216099948E-2,-2.320000058E-4,9.896346000E-2
4.026240020E-1,1.001890004E-1,-2.029800043E-2,-2.383200079E-2,1.049657510E-1
4.076354610E-1,1.152710021E-1,-8.918000385E-3,-3.782099858E-2,1.216444104E-1
4.126468480E-1,1.274680048E-1,2.357000019E-3,-3.263299912E-2,1.316000013E-1
4.176584470E-1,1.530669928E-1,8.946999907E-3,-2.260000072E-2,1.549848803E-1
4.226696030E-1,1.663649976E-1,2.694400027E-2,9.000999853E-3,1.687729528E-1
4.276812270E-1,1.909720004E-1,3.982200101E-2,2.629300021E-2,1.968436398E-1
4.326926130E-1,1.918029934E-1,3.618400171E-2,4.836900160E-2,2.010901056E-1
4.377040020E-1,1.812700033E-1,3.491200134E-2,6.084400043E-2,1.943698905E-1
4.427153860E-1,1.759079993E-1,2.421299927E-2,7.569400221E-2,1.930271367E-1
4.477267670E-1,1.661379933E-1,1.840999909E-2,5.702399835E-2,1.766139782E-1
4.527381520E-1,1.590819955E-1,8.014000021E-3,5.030100048E-2,1.670374094E-1
4.577495360E-1,1.476619989E-1,1.840000041E-4,2.919900045E-2,1.505213652E-1
4.627610000E-1,1.458880007E-1,1.932000043E-3,1.288099959E-2,1.464682953E-1
4.677723860E-1,1.139369980E-1,1.239000005E-3,-8.278000169E-3,1.142440366E-1
4.727837710E-1,8.763500303E-2,2.881000051E-3,-1.274199970E-2,8.860334347E-2
4.777951600E-1,7.143100351E-2,-7.065999787E-3,-4.920000210E-4,7.178132542E-2
4.828065440E-1,3.708399832E-2,-2.124099992E-2,-2.659800090E-2,5.033742803E-2
4.878181580E-1,1.768999919E-2,-2.094800025E-2,-2.881699987E-2,3.977655424E-2
4.928295400E-1,1.982299984E-2,-2.524399944E-2,-2.320999978E-3,3.218070650E-2
4.978406940E-1,3.594199941E-2,-1.309499983E-2,2.659700066E-2,4.659084444E-2
5.028523080E-1,3.780800104E-2,-1.755199954E-2,7.225699723E-2,8.341817116E-2
5.078637080E-1,4.691100121E-2,-1.721799932E-2,1.131289974E-1,1.236740538E-1
5.128751680E-1,4.447000101E-2,-3.081800044E-2,1.300400048E-1,1.408464874E-1
5.178865540E-1,4.702899978E-2,-3.471900150E-2,1.230039969E-1,1.361878083E-1
5.228979340E-1,5.190600082E-2,-4.784600064E-2,1.016149968E-1,1.237298681E-1
5.279092420E-1,4.514199868E-2,-4.896200076E-2,9.934800118E-2,1.196039418E-1
5.329206190E-1,5.011700094E-2,-5.241800100E-2,9.470199794E-2,1.192804637E-1
5.379320810E-1,5.034400150E-2,-6.742999703E-2,8.765699714E-2,1.215116132E-1
5.429434830E-1,6.906799972E-2,-5.638499931E-2,8.305600286E-2,1.218521906E-1
5.479548670E-1,6.617999822E-2,-5.030599982E-2,6.649599969E-2,1.064528241E-1
5.529662520E-1,7.023999840E-2,-3.964700177E-2,4.756399989E-2,9.363693828E-2
5.579776210E-1,5.322400108E-2,-3.383500129E-2,2.142000012E-2,6.660644119E-2
5.629892350E-1,3.892299905E-2,-5.122699961E-2,2.396400087E-2,6.865477902E-2
5.680006500E-1,2.264600061E-2,-6.565599889E-2,1.451100037E-2,7.095153744E-2
5.730120350E-1,4.497999791E-3,-7.935599983E-2,-2.164999954E-3,7.951285390E-2
5.780234440E-1,-1.655000029E-3,-8.549600095E-2,-1.884399913E-2,8.756369971E-2
5.830348280E-1,-8.559999987E-4,-8.199000359E-2,-2.593700029E-2,8.599896167E-2
5.880462130E-1,-2.343600057E-2,-6.447900087E-2,-9.134000167E-3,6.921139815E-2
5.930576080E-1,-1.759899966E-2,-4.963599890E-2,-6.665000226E-3,5.308370187E-2
5.980689920E-1,-4.947000183E-3,-2.814999968E-2,5.406999961E-3,2.908832998E-2
6.030804520E-1,2.583999885E-3,-1.426300034E-2,1.511299983E-2,2.094070194E-2
6.080918430E-1,7.422000170E-3,-7.859999896E-4,2.963200025E-2,3.055747571E-2
6.131034570E-1,2.598999999E-2,2.384899929E-2,5.855799839E-2,6.836149532E-2
6.181148570E-1,6.023300067E-2,4.989600182E-2,7.321400195E-2,1.071350337E-1
6.231260110E-1,7.954099774E-2,4.481200129E-2,7.834299654E-2,1.203017493E-1
6.281373940E-1,1.099959984E-1,3.726100177E-2,9.789299965E-2,1.518898986E-1
6.331487790E-1,1.373440027E-1,3.433400020E-2,9.596499801E-2,1.710306391E-1
6.381601630E-1,1.548029929E-1,3.357400000E-2,8.449400216E-2,1.795283167E-1
6.431715340E-1,1.534850001E-1,3.973200172E-2,6.821499765E-2,1.725965328E-1
6.481831490E-1,1.501529962E-1,5.021300167E-2,3.516399860E-2,1.621843846E-1
6.531945260E-1,1.447519958E-1,3.959399834E-2,4.482000135E-3,1.501363158E-1
6.582059100E-1,1.117379963E-1,4.326200113E-2,-3.106799908E-2,1.237828790E-1
6.632172950E-1,7.279799879E-2,3.305999935E-2,-5.714799836E-2,9.827718912E-2
6.682287550E-1,5.117899925E-2,1.398999989E-2,-7.131099701E-2,8.888345378E-2
6.732401410E-1,2.786399983E-2,-1.354600023E-2,-5.682199821E-2,6.471967312E-2
6.782517550E-1,2.991999965E-3,-2.614899911E-2,-3.043700010E-2,4.023845416E-2
6.832629110E-1,-4.199099913E-2,-4.057599977E-2,-1.613399945E-2,6.058020884E-2
6.882742930E-1,-7.161799818E-2,-4.980500042E-2,2.201800048E-2,8.996926184E-2
6.932856870E-1,-8.413299918E-2,-5.166900158E-2,3.860599920E-2,1.060116524E-1
6.982973020E-1,-8.225700259E-2,-4.643699899E-2,8.151400089E-2,1.247683521E-1
7.033084580E-1,-9.432200342E-2,-2.969099954E-2,1.339669973E-1,1.665093155E-1
7.083200810E-1,-9.442099929E-2,-3.206599876E-2,1.624889970E-1,1.906468660E-1
7.133314680E-1,-8.289899677E-2,-3.473500162E-2,1.958270073E-1,2.154692108E-1
7.183428680E-1,-6.713800132E-2,-4.465100169E-2,1.909230053E-1,2.072506143E-1
7.233542520E-1,-4.039800167E-2,-4.309200123E-2,1.382389963E-1,1.503294356E-1
7.283657120E-1,-2.388899960E-2,-4.213200137E-2,9.518100321E-2,1.067951928E-1
7.333770170E-1,-2.669199929E-2,-4.169400036E-2,6.410399824E-2,8.099490776E-2
7.383883990E-1,-5.754199997E-2,-4.877899960E-2,4.972599819E-2,9.035013812E-2
7.433998470E-1,-6.921300292E-2,-5.869600177E-2,4.252599925E-2,1.002203622E-1
7.484112330E-1,-7.383000106E-2,-6.653100252E-2,3.294400126E-2,1.047021995E-1
7.534226180E-1,-5.772500113E-2,-5.835599825E-2,-4.980000085E-4,8.208438518E-2
7.584340130E-1,-2.855399996E-2,-4.852300137E-2,-3.623199835E-2,6.695199983E-2
7.634453970E-1,-1.909800060E-2,-3.691200167E-2,-5.038100109E-2,6.531060224E-2
7.684567820E-1,-5.584999919E-3,-9.475000203E-3,-7.643000036E-2,7.721730900E-2
7.734683800E-1,1.192799956E-2,1.475299988E-2,-7.369600236E-2,7.609881039E-2
7.784797670E-1,7.900999859E-3,3.128999844E-2,-7.573799789E-2,8.232699512E-2
7.834911520E-1,3.922000062E-3,3.347200155E-2,-5.624600127E-2,6.556957855E-2
7.885025220E-1,-4.645999987E-3,2.637399919E-2,-5.830299854E-2,6.415927671E-2
7.935139070E-1,-3.709000070E-3,3.360399976E-2,-4.838699847E-2,5.902785023E-2
7.985252810E-1,1.832999988E-3,3.854700178E-2,-2.648800053E-2,4.680646758E-2
8.035366660E-1,2.820800059E-2,4.127699882E-2,-6.922000088E-3,5.047173480E-2
8.085481260E-1,4.940799996E-2,6.982900202E-2,2.225399949E-2,8.838823721E-2
8.135594980E-1,6.108200178E-2,9.086699784E-2,3.468599916E-2,1.148518209E-1
8.185708830E-1,7.517699897E-2,1.092550009E-1,4.473200068E-2,1.399613814E-1
8.235822620E-1,7.067400217E-2,1.160129979E-1,3.559000045E-2,1.404296208E-1
8.285936470E-1,7.125599682E-2,1.252499968E-1,3.839299828E-2,1.491274659E-1
8.336050320E-1,6.046000123E-2,1.346080005E-1,1.961099915E-2,1.488600579E-1
8.386164160E-1,5.719599873E-2,1.046489999E-1,2.232399955E-2,1.213307727E-1
8.436278000E-1,5.665000156E-2,9.683299810E-2,2.261099964E-2,1.144426035E-1
8.486391890E-1,7.254700363E-2,9.186399728E-2,2.052699961E-2,1.188419936E-1
8.536505730E-1,6.271699816E-2,8.264499903E-2,3.752899915E-2,1.103269845E-1
8.586621890E-1,6.744799763E-2,7.615999877E-2,7.365699857E-2,1.255982931E-1
8.636735890E-1,6.751299649E-2,4.653900117E-2,9.540399909E-2,1.258006612E-1
8.686849740E-1,3.756099939E-2,1.070799958E-2,9.311600029E-2,1.009756379E-1
8.736963390E-1,4.009999800E-3,-2.191100083E-2,8.592899889E-2,8.876916641E-2
8.787077240E-1,-2.900999971E-3,-5.604999885E-2,5.716900155E-2,8.011437393E-2
8.837191090E-1,-2.127699926E-2,-6.839500368E-2,3.314699978E-2,7.892598317E-2
8.887305480E-1,-2.521800064E-2,-7.346799970E-2,1.629699953E-2,7.936678606E-2
8.937418580E-1,-2.923100069E-2,-6.452599913E-2,-1.250599977E-2,7.193369166E-2
8.987532410E-1,-4.242800176E-2,-6.745900214E-2,4.120999947E-3,7.979871517E-2
9.037647070E-1,-3.435400128E-2,-5.863999948E-2,2.077399939E-2,7.106620852E-2
9.087760170E-1,-2.192600071E-2,-5.246499926E-2,2.550500073E-2,6.232038765E-2
9.137874760E-1,6.304999813E-3,-3.021699935E-2,4.228699952E-2,5.235465978E-2
9.187988580E-1,1.731099933E-2,-3.202699870E-2,5.911299959E-2,6.942439099E-2
9.238102430E-1,1.863699965E-2,-3.158599883E-2,5.680600181E-2,6.761608477E-2
9.288216120E-1,-7.938999683E-3,-3.817699850E-2,5.682099983E-2,6.891398227E-2
9.338329970E-1,-3.849999979E-2,-4.932999983E-2,2.804999985E-2,6.857478661E-2
9.388446240E-1,-5.439300090E-2,-6.246099994E-2,6.426000036E-3,8.307387397E-2
9.438560110E-1,-3.050100058E-2,-5.674999952E-2,-7.938000374E-3,6.491444625E-2
9.488673960E-1,-2.787000034E-3,-3.960999846E-2,-3.071000101E-3,3.982650360E-2
9.538787850E-1,-3.953000065E-3,-2.304599993E-2,1.377999969E-2,2.714097849E-2
9.588901700E-1,4.058999941E-3,-2.328599989E-2,2.827399969E-2,3.685284697E-2
9.639015450E-1,1.427000016E-2,-1.203399990E-2,2.604099922E-2,3.204034485E-2
9.689129300E-1,7.907000370E-3,-1.510700025E-2,1.900500059E-2,2.553296220E-2
9.739243750E-1,-9.783999994E-3,-1.581400074E-2,3.106000088E-2,3.620128354E-2
9.789356840E-1,-3.146199882E-2,-1.642699912E-2,3.586500138E-2,5.045792300E-2
9.839470720E-1,-5.006000027E-2,-2.160100080E-2,3.342999890E-2,6.395445011E-2
9.889585340E-1,-3.765900061E-2,-1.715200022E-2,4.296800122E-2,5.965434240E-2
9.939699150E-1,-2.325999923E-2,1.198000042E-3,3.579499945E-2,4.270532466E-2
9.989813000E-1,-2.571300045E-2,1.446700003E-2,3.820599988E-2,4.827163669E-2
1.003992689E0,-2.345399931E-2,1.584400050E-2,5.976700038E-2,6.613030145E-2
1.009004074E0,-1.892000064E-2,2.187599987E-2,6.698100269E-2,7.295875901E-2
1.014015459E0,-3.079999983E-2,2.545000054E-2,5.502400175E-2,6.799987710E-2
1.019026848E0,-3.999400139E-2,2.195500024E-2,5.979099870E-2,7.520974477E-2
1.024038462E0,-6.294000149E-2,7.069999818E-3,4.535499960E-2,7.790060766E-2
1.029049848E0,-6.431700289E-2,6.556999870E-3,4.049000144E-2,7.628309986E-2
1.034061233E0,-4.473600164E-2,6.008999888E-3,5.002899840E-2,6.738188632E-2
1.039072613E0,-3.729699925E-2,7.737000007E-3,4.522899911E-2,5.913196836E-2
1.044083997E0,-3.473300114E-2,1.167299971E-2,4.044099897E-2,5.457210541E-2
1.049095391E0,-3.217300028E-2,8.458999917E-3,2.129199915E-2,3.949690942E-2
1.054106850E0,-3.192200139E-2,-1.095800009E-2,9.309999645E-3,3.501097017E-2
1.059118160E0,-3.618999943E-2,2.642000094E-3,1.406100020E-2,3.891539477E-2
1.064129635E0,-2.862199955E-2,-1.665000059E-2,6.852000020E-3,3.381406929E-2
1.069141021E0,-2.586299926E-2,-5.185999908E-3,6.827000063E-3,2.724696782E-2
1.074152415E0,-1.382999960E-2,-1.030499954E-2,1.161099970E-2,2.079127746E-2
1.079164028E0,-4.435000010E-3,7.876000367E-3,4.459999967E-3,1.007929594E-2
1.084175415E0,6.099999882E-5,6.947000045E-3,1.406900026E-2,1.569080300E-2
1.089186800E0,-4.848999903E-3,1.069100015E-2,1.887900010E-2,2.223121519E-2
1.094198184E0,-1.196600031E-2,2.592100017E-2,6.930999923E-3,2.937894098E-2
1.099209319E0,-1.429800037E-2,2.218299918E-2,2.157999901E-3,2.647971357E-2
1.104220702E0,-2.722000005E-3,2.321000025E-2,1.417499967E-2,2.733210587E-2
1.109232086E0,-1.707500033E-2,1.961999945E-2,1.897699945E-2,3.219668497E-2
1.114243702E0,-1.243900042E-2,2.279999899E-3,3.814100102E-2,4.018287060E-2
1.119255088E0,-1.254799962E-2,1.099899970E-2,5.251900107E-2,5.510604107E-2
1.124266459E0,1.294999965E-3,3.205999965E-3,5.975199863E-2,5.985195737E-2
1.129277844E0,5.506999791E-3,1.409900002E-2,6.221000105E-2,6.402494107E-2
1.134289303E0,1.422599982E-2,1.079600025E-2,5.750999972E-2,6.021903985E-2
1.139300675E0,3.197500110E-2,1.002900023E-2,5.764099956E-2,6.667433067E-2
1.144312059E0,4.224700108E-2,4.749000072E-3,4.104600102E-2,5.909430008E-2
1.149323444E0,4.997299984E-2,-4.722999875E-3,4.838199914E-2,6.971675036E-2
1.154334752E0,5.984599888E-2,2.570000011E-3,4.616900161E-2,7.562886481E-2
1.159346211E0,5.563100055E-2,1.688499935E-2,2.957800031E-2,6.522859440E-2
1.164357545E0,3.533700109E-2,1.255199965E-2,2.488600090E-2,4.500632602E-2
1.169369005E0,2.721700072E-2,6.254000124E-3,1.059800014E-2,2.986963764E-2
1.174380372E0,2.402699925E-2,2.592999954E-3,2.740100026E-2,3.653539595E-2
1.179391757E0,2.319899946E-2,1.728000003E-3,2.984499931E-2,3.784050137E-2
1.184403370E0,8.518000133E-3,-1.285899989E-2,2.745000087E-2,3.148670755E-2
1.189414761E0,-1.034499984E-2,-1.531700045E-2,6.089400128E-2,6.363732329E-2
1.194426145E0,3.965000156E-3,-3.641000018E-3,8.001299948E-2,8.019387877E-2
1.199437530E0,4.195000045E-3,7.970000152E-4,9.432300180E-2,9.441960550E-2
1.204448911E0,4.701000173E-3,1.219400018E-2,1.110040024E-1,1.117706652E-1
1.209460295E0,-8.465999737E-3,2.343199961E-2,1.013069972E-1,1.043256414E-1
1.214471680E0,-2.563799918E-2,3.456399962E-2,8.197200298E-2,9.258178193E-2
1.219483055E0,-3.740499914E-2,4.796700180E-2,6.258500367E-2,8.727456621E-2
1.224494439E0,-3.487699851E-2,5.428899825E-2,4.320399836E-2,7.765491504E-2
1.229505899E0,-3.479300067E-2,6.070400029E-2,2.382699959E-2,7.391383129E-2
1.234517285E0,-3.238699958E-2,6.715399772E-2,2.359900065E-2,7.820159834E-2
1.239528593E0,-4.157200083E-2,7.834699750E-2,3.530500084E-2,9.546164861E-2
1.244539976E0,-4.357400164E-2,7.308500260E-2,6.136599928E-2,1.049089943E-1
1.249551437E0,-5.028000101E-2,4.482499883E-2,6.108799949E-2,9.093460674E-2
1.254562824E0,-5.678400025E-2,1.955600083E-2,6.318099797E-2,8.717051312E-2
1.259574193E0,-5.847899988E-2,1.831999980E-3,7.723599672E-2,9.689452431E-2
1.264585578E0,-5.785699934E-2,-1.321600005E-2,7.933100313E-2,9.907322084E-2
1.269596949E0,-5.738599971E-2,-3.745099902E-2,7.425899804E-2,1.010451834E-1
1.274608333E0,-5.462199822E-2,-6.124600023E-2,6.919399649E-2,1.073426494E-1
1.279619952E0,-5.190699920E-2,-7.069700211E-2,5.695899948E-2,1.045788234E-1
1.284631108E0,-4.929700121E-2,-7.306999713E-2,4.712799937E-2,9.995232430E-2
1.289642721E0,-4.913099855E-2,-8.494500071E-2,2.773300000E-2,1.019736606E-1
1.294654103E0,-4.203499854E-2,-8.502200246E-2,1.554199960E-2,9.611053925E-2
1.299665487E0,-3.063499928E-2,-6.670700014E-2,-1.335200015E-2,7.460967066E-2
1.304676891E0,-2.887500077E-2,-4.447900131E-2,5.625999998E-3,5.332728292E-2
1.309688276E0,-2.954700030E-2,-2.994599938E-2,5.468000192E-3,4.242271953E-2
1.314699660E0,-2.561699972E-2,-8.876999840E-3,5.330000073E-3,2.763043071E-2
1.319711060E0,-1.486499980E-2,9.054999799E-3,1.958299987E-2,2.620028863E-2
1.324722444E0,-1.149799954E-2,7.751999889E-3,2.746999962E-3,1.413660159E-2
1.329733904E0,-2.226199955E-2,1.333399955E-2,9.821999818E-3,2.774642046E-2
1.334745296E0,-2.805699967E-2,-1.374499965E-2,1.209300011E-2,3.350165515E-2
1.339756680E0,-4.062199965E-2,-2.382599935E-2,-4.813000094E-3,4.733909664E-2
1.344768089E0,-3.203799948E-2,-2.658000030E-2,-4.937999882E-3,4.192032525E-2
1.349779473E0,6.500999909E-3,-1.288300008E-2,9.389000013E-3,1.721592321E-2
1.354790873E0,1.836000010E-2,2.901999978E-3,1.178300008E-2,2.200795989E-2
1.359802258E0,4.140200093E-2,1.356699970E-2,7.063999772E-3,4.413716410E-2
1.364813618E0,3.600599989E-2,2.879700065E-2,2.625299990E-2,5.305581286E-2
1.369825002E0,2.163299918E-2,2.047000080E-2,1.428399980E-2,3.303089821E-2
1.374836405E0,1.947000064E-2,1.507699955E-2,1.186299976E-2,2.733363503E-2
1.379847789E0,1.985899918E-2,1.004299987E-2,3.096600063E-2,3.813312064E-2
1.384859174E0,3.200000152E-2,5.462999921E-3,2.136999927E-2,3.886542595E-2
1.389870789E0,5.321500078E-2,8.290000260E-3,3.334899992E-2,6.334600388E-2
1.394881945E0,7.868500054E-2,2.061400004E-2,5.733799934E-2,9.951840270E-2
1.399893568E0,9.202600271E-2,3.042699955E-2,7.894799858E-2,1.250094955E-1
1.404904954E0,9.132599831E-2,3.083400056E-2,7.421100140E-2,1.216488647E-1
1.409916339E0,7.698799670E-2,4.306200147E-2,6.463000178E-2,1.093550398E-1
1.414927704E0,7.252199948E-2,5.284100026E-2,5.741899833E-2,1.065295878E-1
1.419939089E0,5.669699982E-2,4.618600011E-2,3.340899944E-2,8.039811962E-2
1.424950474E0,2.980500087E-2,4.002499953E-2,1.411100011E-2,5.185999410E-2
1.429961858E0,-1.253500022E-2,3.196100146E-2,1.385299955E-2,3.702077040E-2
1.434973243E0,-4.906800017E-2,1.968199946E-2,2.308499999E-2,5.768853411E-2
1.439984707E0,-7.989499718E-2,-1.304899994E-2,3.703400120E-2,8.902249277E-2
1.444996094E0,-7.272700220E-2,-3.539700061E-2,6.058400124E-2,1.010573387E-1
1.450007479E0,-7.983300090E-2,-4.541499913E-2,8.413399756E-2,1.245566527E-1
1.455018868E0,-8.446600288E-2,-5.519599840E-2,1.124700010E-1,1.510979980E-1
1.460030253E0,-7.976700366E-2,-5.076200143E-2,1.551900059E-1,1.817236737E-1
1.465041638E0,-8.914399892E-2,-5.349000171E-2,1.835380048E-1,2.109360851E-1
1.470053036E0,-9.369800240E-2,-4.697399959E-2,1.951380074E-1,2.215055625E-1
1.475064420E0,-1.052580029E-1,-5.714900047E-2,1.995549947E-1,2.327390198E-1
1.480076029E0,-1.236570030E-1,-5.797199905E-2,1.824149936E-1,2.278750469E-1
1.485087416E0,-1.278430074E-1,-7.763499767E-2,1.365810037E-1,2.025472734E-1
1.490098801E0,-1.136960015E-1,-8.312399685E-2,6.688400358E-2,1.559161619E-1
1.495110190E0,-1.049069986E-1,-7.706700265E-2,6.804000121E-3,1.303498971E-1
1.500121575E0,-1.061019972E-1,-5.309500173E-2,-3.410400078E-2,1.234495682E-1
1.505132959E0,-8.446200192E-2,-3.492200002E-2,-2.947299927E-2,9.603141955E-2
1.510144354E0,-4.781299829E-2,7.779999869E-4,-2.472399920E-2,5.383274307E-2
1.515155739E0,-2.210099995E-2,1.402799971E-2,-3.132000100E-3,2.636377058E-2
1.520167123E0,-9.014000185E-3,2.876700088E-2,2.089199983E-2,3.667789792E-2
1.525178507E0,1.065799966E-2,3.812599927E-2,2.581400052E-2,4.726042107E-2
1.530189967E0,2.532899939E-2,3.774699941E-2,-5.142999813E-3,4.574761875E-2
1.535201257E0,4.677499831E-2,4.667399824E-2,-2.649899945E-2,7.119381679E-2
1.540212640E0,4.705499858E-2,4.611900076E-2,-4.788300022E-2,8.144886023E-2
1.545224101E0,3.608499840E-2,4.112999886E-2,-7.170899957E-2,9.019969255E-2
1.550235483E0,3.494400159E-2,4.111799970E-2,-8.119499683E-2,9.749051573E-2
1.555246868E0,4.811500013E-2,4.831700027E-2,-5.956999958E-2,9.054374966E-2
1.560258233E0,7.035200298E-2,6.714300066E-2,-3.551600128E-2,1.035324742E-1
1.565269618E0,7.600200176E-2,8.802100271E-2,4.860000045E-4,1.162937547E-1
1.570281012E0,6.778100133E-2,9.691099823E-2,1.970300078E-2,1.198925100E-1
1.575292397E0,6.005600095E-2,8.958400041E-2,2.452800050E-2,1.106057828E-1
1.580303782E0,5.048200116E-2,7.587499917E-2,5.085600168E-2,1.043636951E-1
1.585315166E0,3.919300064E-2,7.222799957E-2,6.038499996E-2,1.019770731E-1
1.590326550E0,3.303999826E-2,6.904900074E-2,5.074999854E-2,9.184208371E-2
1.595338168E0,3.191599995E-2,5.466499925E-2,6.024599820E-2,8.738691833E-2
1.600349555E0,1.930199936E-2,5.499099940E-2,7.210399956E-2,9.271226427E-2
1.605360940E0,2.567400038E-2,6.720899791E-2,6.243700162E-2,9.526060500E-2
1.610372320E0,2.489100024E-2,5.590600148E-2,6.234500185E-2,8.736098757E-2
1.615383705E0,1.473800000E-2,5.194900185E-2,6.942000240E-2,8.794909988E-2
1.620395090E0,1.870300062E-2,4.578299820E-2,7.173000276E-2,8.712679526E-2
1.625406493E0,2.010699920E-2,2.812799998E-2,7.166499645E-2,7.956976508E-2
1.630417953E0,1.437199954E-2,2.718600072E-2,6.681499630E-2,7.355186426E-2
1.635429262E0,6.345999893E-3,2.880000044E-3,5.717800185E-2,5.760112855E-2
1.640440722E0,-6.058999803E-3,-1.385900006E-2,6.905400008E-2,7.069114717E-2
1.645452109E0,-1.343599986E-2,-2.563400008E-2,7.613100111E-2,8.144665360E-2
1.650463493E0,-4.368999973E-3,-5.343300104E-2,9.042300284E-2,1.051213261E-1
1.655474878E0,-1.163700037E-2,-7.116500288E-2,9.273000062E-2,1.174679975E-1
1.660486271E0,-2.324599959E-2,-8.620300144E-2,7.586999983E-2,1.171648020E-1
1.665497656E0,-3.664899990E-2,-8.691000193E-2,7.572100312E-2,1.209552311E-1
1.670509056E0,-4.023899883E-2,-7.597599924E-2,7.794799656E-2,1.160492122E-1
1.675520440E0,-5.302999914E-2,-7.005099952E-2,6.579399854E-2,1.097641726E-1
1.680532054E0,-6.071300060E-2,-5.499900132E-2,4.643499851E-2,9.416563957E-2
1.685543440E0,-7.275000215E-2,-4.748199880E-2,4.618800059E-2,9.838919870E-2
1.690554594E0,-9.369300306E-2,-4.708300158E-2,2.436299995E-2,1.076510271E-1
1.695565962E0,-9.540200233E-2,-4.199799895E-2,1.210800000E-2,1.049379704E-1
1.700577577E0,-7.852700353E-2,-4.647300020E-2,-7.280999795E-3,9.153820507E-2
1.705588733E0,-5.780100077E-2,-3.445399925E-2,-2.899800055E-2,7.327289943E-2
1.710600097E0,-4.959800094E-2,-2.514100075E-2,-2.435800061E-2,6.070703262E-2
1.715611712E0,-4.194299877E-2,-2.534399927E-2,-2.446199954E-2,5.477155161E-2
1.720623099E0,-4.412399977E-2,-2.096300013E-2,-3.412000090E-2,5.958648498E-2
1.725634483E0,-1.629599929E-2,-1.666299999E-2,-2.934700064E-2,3.747614719E-2
1.730645868E0,1.270600036E-2,-1.487000007E-2,-3.406300023E-2,3.927909536E-2
1.735657253E0,4.531599954E-2,-1.313799992E-2,-2.673400007E-2,5.422963780E-2
1.740668666E0,4.210399836E-2,-1.360000018E-2,-1.222500019E-2,4.590378321E-2
1.745680051E0,4.366099834E-2,-7.156000007E-3,2.280999906E-3,4.430230325E-2
1.750691500E0,4.066099972E-2,-8.399999933E-4,7.197999861E-3,4.130173967E-2
1.755702810E0,3.101300076E-2,2.832999919E-3,2.882600017E-2,4.243548504E-2
1.760714193E0,2.427900024E-2,-5.280000041E-4,5.999400094E-2,6.472270688E-2
1.765725659E0,2.731199935E-2,-3.804000095E-3,7.918900251E-2,8.385292985E-2
1.770737046E0,1.415999979E-2,-4.854999948E-3,9.834200144E-2,9.947474989E-2
1.775748436E0,-1.221599989E-2,-1.761499979E-2,1.078549996E-1,1.099646298E-1
1.780759820E0,-3.063800000E-2,-1.384900045E-2,9.099099785E-2,9.700434808E-2
1.785771200E0,-4.844700173E-2,-3.118799999E-2,6.213499978E-2,8.473819397E-2
1.790782584E0,-6.342700124E-2,-2.723000012E-2,4.999800026E-2,8.523061318E-2
1.795793959E0,-6.870599836E-2,-3.736000136E-2,3.068299964E-2,8.401029924E-2
1.800805344E0,-8.078099787E-2,-3.564900160E-2,3.766499832E-2,9.599517191E-2
1.805816709E0,-6.713300198E-2,-2.705799975E-2,6.395999808E-3,7.266281111E-2
1.810828093E0,-5.639199913E-2,-1.408900041E-2,8.651999757E-3,5.876576042E-2
1.815839477E0,-5.074800178E-2,-8.407000452E-3,1.357999980E-3,5.145756995E-2
1.820850856E0,-4.765800014E-2,8.710999973E-3,-1.154000056E-3,4.846130636E-2
1.825862472E0,-4.936100170E-2,6.870999932E-3,-1.266999985E-3,4.985302817E-2
1.830873844E0,-3.482199833E-2,1.437400002E-2,-1.351000043E-3,3.769626832E-2
1.835885229E0,-2.540899999E-2,1.712200046E-2,5.764999893E-3,3.117716158E-2
1.840896622E0,-1.870699972E-2,1.520400029E-2,1.051599998E-2,2.630018477E-2
1.845908007E0,-1.927500032E-2,1.804400049E-2,1.766400039E-2,3.176678298E-2
1.850919383E0,-1.516299974E-2,1.847299933E-2,2.721500024E-2,3.621911793E-2
1.855930767E0,-1.586499996E-2,2.585499920E-2,3.197300062E-2,4.407325692E-2
1.860942132E0,-1.888800040E-2,2.606599964E-2,1.997799985E-2,3.788552988E-2
1.865953517E0,-1.490900014E-2,2.865199931E-2,2.235299908E-2,3.927940831E-2
1.870964901E0,-1.102800015E-2,3.811400011E-2,3.429599851E-2,5.244529823E-2
1.875976300E0,-9.569999762E-3,4.032500088E-2,4.145500064E-2,5.861917493E-2
1.880987760E0,-8.163999766E-3,4.717599973E-2,3.664699942E-2,6.029285537E-2
1.885999070E0,2.334499918E-2,4.916499928E-2,5.104399845E-2,7.461686082E-2
1.891010549E0,3.546300158E-2,4.418899864E-2,5.110500008E-2,7.630211737E-2
1.896021858E0,1.943200082E-2,3.714900091E-2,5.832099915E-2,7.182610853E-2
1.901033260E0,-5.386000033E-3,3.500999883E-2,7.028099895E-2,7.870278157E-2
1.906044645E0,-1.532000024E-3,3.065799922E-2,7.985500246E-2,8.555162978E-2
1.911056081E0,-2.413999988E-3,2.883699909E-2,5.832400173E-2,6.510828741E-2
1.916067697E0,3.633999964E-3,2.473800071E-2,6.074500084E-2,6.568964729E-2
1.921078852E0,2.562499978E-2,3.004799969E-2,5.603000149E-2,6.854840601E-2
1.926090235E0,2.824800089E-2,2.353800088E-2,4.654899985E-2,5.931944392E-2
1.931101620E0,3.291400149E-2,3.109399974E-2,3.708000109E-2,5.852430944E-2
1.936113018E0,2.101800032E-2,1.288199984E-2,4.197600111E-2,4.867943022E-2
1.941124403E0,-4.472000059E-3,9.034999646E-3,3.007899970E-2,3.172343339E-2
1.946135774E0,-1.455000020E-3,9.940999560E-3,3.494400159E-2,3.635964444E-2
1.951147158E0,6.064000074E-3,1.539999992E-2,3.981800005E-2,4.312082121E-2
1.956158543E0,3.194700181E-2,1.360599976E-2,4.713200033E-2,5.854194743E-2
1.961170158E0,3.377300128E-2,2.088399976E-2,7.357899845E-2,8.360996397E-2
1.966181314E0,1.710500009E-2,1.383099984E-2,8.084499836E-2,8.378419508E-2
1.971192941E0,-1.991200075E-2,-9.421000257E-3,7.130999863E-2,7.463483720E-2
1.976204097E0,-5.099000037E-2,-1.590299979E-2,7.606399804E-2,9.294416247E-2
1.981215726E0,-5.550500005E-2,-3.150999919E-2,5.928499997E-2,8.711140167E-2
1.986227112E0,-4.347300157E-2,-2.812200040E-2,4.730200022E-2,7.013007912E-2
1.991238497E0,-2.248300053E-2,-4.106999934E-2,3.058700077E-2,5.592669108E-2
1.996249906E0,-2.304499969E-2,-4.199900106E-2,1.148399990E-2,4.926327592E-2
2.001261290E0,-2.822699957E-2,-3.809700161E-2,1.869500056E-2,5.096712747E-2
2.006272675E0,-3.556700051E-2,-3.654199839E-2,-9.995000437E-3,5.196372971E-2
2.011284060E0,-3.339700028E-2,-3.028200008E-2,-5.181999877E-3,4.537854426E-2
2.016295519E0,-3.599800169E-2,-2.879800089E-2,-5.154000130E-3,4.638690223E-2
2.021306843E0,-4.097300023E-2,-1.104800031E-2,-9.932000190E-3,4.358313534E-2
2.026318302E0,-5.056999996E-2,-1.471100003E-2,-1.710500009E-2,5.537435730E-2
2.031329689E0,-3.672000021E-2,-6.612000056E-3,-9.898999706E-3,3.860138800E-2
2.036341060E0,-3.274200112E-2,5.878000055E-3,-5.082999822E-3,3.365154393E-2
2.041352444E0,-1.744600013E-2,2.482799999E-2,2.132999944E-3,3.041943775E-2
2.046363829E0,-2.703000093E-3,1.985899918E-2,1.656199992E-2,2.599972883E-2
2.051375213E0,1.151600014E-2,3.571699932E-2,4.056100175E-2,5.525863881E-2
2.056386597E0,3.225100040E-2,2.987599932E-2,6.220100075E-2,7.616867372E-2
2.061398000E0,2.910899930E-2,1.925400086E-2,7.187300175E-2,7.989855299E-2
2.066409384E0,2.154099941E-2,1.551000029E-2,1.078329980E-1,1.110519258E-1
2.071420769E0,-4.294000100E-3,3.999999990E-6,8.393000066E-2,8.403977311E-2
2.076432154E0,-2.003999986E-2,-1.536499988E-2,6.478799880E-2,6.953538382E-2
2.081443769E0,-4.224900156E-2,-3.280000016E-2,4.322599992E-2,6.876994411E-2
2.086455146E0,-5.453300104E-2,-4.764899984E-2,2.165400051E-2,7.558552193E-2
2.091466299E0,-6.180299819E-2,-6.686499715E-2,1.922900043E-2,9.306069464E-2
2.096477654E0,-6.429500133E-2,-6.934499741E-2,2.449000021E-3,9.459689985E-2
2.101489039E0,-5.983300135E-2,-7.421799749E-2,-1.670799963E-2,9.678562111E-2
2.106500654E0,-5.319700018E-2,-7.655599713E-2,-2.388400026E-2,9.623506114E-2
2.111512066E0,-5.605300143E-2,-7.423499972E-2,-2.867599949E-2,9.734005907E-2
2.116523450E0,-4.963200167E-2,-6.261300296E-2,-9.531999938E-3,8.046479200E-2
2.121534830E0,-4.812499881E-2,-5.359299853E-2,-1.910500042E-2,7.451997077E-2
2.126546215E0,-2.577099949E-2,-3.777299821E-2,-1.429999992E-2,4.791068572E-2
2.131557599E0,-6.498999894E-3,-1.075099967E-2,-2.863300033E-2,3.126771020E-2
2.136568984E0,2.153100073E-2,1.576000010E-3,-2.618500032E-2,3.393703007E-2
2.141580393E0,3.938400000E-2,2.761700004E-2,-1.655299962E-2,5.087042308E-2
2.146591777E0,4.730400071E-2,4.833599925E-2,-9.320000187E-3,6.827078226E-2
2.151603170E0,4.328199849E-2,6.380199641E-2,-2.603599988E-2,8.137505409E-2
2.156614554E0,3.228199854E-2,6.256099790E-2,-3.318899870E-2,7.783004255E-2
2.161625929E0,3.067599982E-2,5.425700173E-2,-2.118499950E-2,6.583041398E-2
2.166637314E0,1.506500039E-2,4.373700172E-2,5.166000221E-3,4.654639744E-2
2.171648750E0,2.075899951E-2,1.933000050E-2,3.872900084E-2,4.800542142E-2
2.176660060E0,2.615600079E-2,2.348999958E-3,6.514299661E-2,7.023719944E-2
2.181671439E0,1.055500004E-2,-2.380299941E-2,9.393700212E-2,9.747897812E-2
2.186682823E0,9.436000139E-3,-3.329399973E-2,1.059689969E-1,1.114762612E-1
2.191694208E0,-1.016000006E-2,-4.510999843E-2,1.036090031E-1,1.134590811E-1
2.196705683E0,-1.506800018E-2,-4.506300017E-2,9.644000232E-2,1.075099654E-1
2.201717070E0,-3.126899898E-2,-4.505499825E-2,8.683600277E-2,1.027044037E-1
2.206728455E0,-3.531700000E-2,-3.105200082E-2,8.677800000E-2,9.870125900E-2
2.211739839E0,-4.158399999E-2,-1.958799921E-2,7.473900169E-2,8.774301763E-2
2.216751224E0,-5.225300044E-2,-1.055299956E-2,7.464099675E-2,9.172251769E-2
2.221762622E0,-5.351699889E-2,-1.088699978E-2,6.498999894E-2,8.488990456E-2
2.226774007E0,-6.187500060E-2,-1.808300056E-2,3.620500118E-2,7.393451642E-2
2.231785402E0,-5.619499832E-2,-2.256499976E-2,-1.169000007E-2,6.167425032E-2
2.236796786E0,-4.165299982E-2,-5.979999900E-3,-5.238699913E-2,6.719472056E-2
2.241808170E0,-3.715699911E-2,-3.869999899E-3,-6.434799731E-2,7.440621103E-2
2.246819549E0,-2.616400085E-2,2.659999998E-3,-4.278500006E-2,5.022137762E-2
2.251830933E0,-1.107699983E-2,1.564100012E-2,9.891999885E-3,2.156832102E-2
2.256842308E0,1.495299954E-2,2.326700091E-2,2.670999989E-2,3.844957244E-2
2.261853693E0,4.711500183E-2,3.267500177E-2,3.159900010E-2,6.546736550E-2
2.266865308E0,5.747500062E-2,3.228100017E-2,2.692300081E-2,7.120594526E-2
2.271876690E0,5.136200041E-2,3.165199980E-2,3.897299990E-2,7.182477914E-2
2.276888074E0,3.857899830E-2,4.950800166E-2,3.182499856E-2,7.037195372E-2
2.281899459E0,2.868600003E-2,5.054099858E-2,2.943300083E-2,6.514277146E-2
2.286910858E0,3.082799911E-2,5.846399814E-2,2.941799909E-2,7.234516762E-2
2.291922243E0,4.010999948E-2,4.732500017E-2,5.573299900E-2,8.339445351E-2
2.296933617E0,3.992599994E-2,3.876899928E-2,7.248199731E-2,9.138249674E-2
2.301945001E0,3.065600060E-2,3.266600147E-2,7.963400334E-2,9.136975710E-2
2.306956366E0,1.946499944E-2,2.668300085E-2,8.197800070E-2,8.838134043E-2
2.311967826E0,4.137000069E-3,3.714400157E-2,7.709400356E-2,8.567541659E-2
2.316979126E0,-8.154000156E-3,2.651000023E-2,8.654700220E-2,9.088262441E-2
2.321990509E0,-1.515499968E-2,4.436499998E-2,7.681900263E-2,8.999492432E-2
2.327001898E0,-1.949499920E-2,3.874300048E-2,4.795100167E-2,6.465580903E-2
2.332013360E0,-2.832799964E-2,2.915100008E-2,2.388300002E-2,4.714503218E-2
2.337024661E0,-3.933399916E-2,2.725899965E-2,-7.354999892E-3,4.841810173E-2
2.342036043E0,-5.710700154E-2,2.358400077E-2,-1.466500014E-2,6.350178696E-2
2.347047428E0,-6.312800199E-2,2.270800062E-2,-2.912599966E-2,7.313769058E-2
2.352058813E0,-5.767500028E-2,2.214499936E-2,-3.158000112E-2,6.938373818E-2
2.357070197E0,-6.651599705E-2,1.716399938E-2,-7.703000214E-3,6.912537125E-2
2.362081673E0,-5.215099826E-2,1.931999996E-2,1.382299978E-2,5.730675651E-2
2.367092982E0,-2.903500013E-2,1.900899969E-2,2.582399920E-2,4.325797310E-2
2.372104365E0,-1.579199918E-2,2.551800013E-2,5.218699947E-2,6.019998739E-2
2.377115755E0,-1.222399995E-2,2.700099908E-2,5.701100081E-2,6.425522811E-2
2.382127216E0,3.012999892E-3,2.130099945E-2,4.989000037E-2,5.433068086E-2
2.387138603E0,1.095500030E-2,2.261400037E-2,5.234000087E-2,5.805928638E-2
2.392149972E0,7.240000181E-3,1.912499964E-2,5.477099866E-2,5.846405312E-2
2.397161357E0,-9.089999949E-4,8.675999939E-3,4.043899849E-2,4.136921385E-2
2.402172733E0,-8.608000353E-3,1.024099998E-2,1.890400052E-2,2.315895046E-2
2.407184117E0,-1.821699925E-2,-2.225999953E-3,1.888700016E-2,2.633501305E-2
2.412195492E0,-2.275400050E-2,-1.659500040E-2,3.083699942E-2,4.176193374E-2
2.417206877E0,-3.400800005E-2,-2.356299944E-2,2.601500042E-2,4.887268416E-2
2.422218266E0,-4.248600081E-2,-4.186499864E-2,2.358799987E-2,6.414150071E-2
2.427229880E0,-5.532599986E-2,-4.344199970E-2,3.788400069E-2,7.989600182E-2
2.432241266E0,-4.689199850E-2,-4.503599927E-2,3.783800080E-2,7.522509593E-2
2.437252410E0,-4.119800031E-2,-5.362899974E-2,9.105999954E-3,6.823682348E-2
2.442263798E0,-3.340600058E-2,-6.209300086E-2,1.389699988E-2,7.186534795E-2
2.447275182E0,-3.061199933E-2,-5.882100016E-2,1.390600018E-2,6.775235349E-2
2.452286567E0,-2.341400087E-2,-4.884099960E-2,-5.220999941E-3,5.441431355E-2
2.457298196E0,-1.422899961E-2,-6.493200362E-2,-5.171999801E-3,6.667367626E-2
2.462309352E0,-5.464999937E-3,-6.677400321E-2,-1.946000010E-2,6.976621914E-2
2.467320966E0,-1.747000031E-3,-5.931900069E-2,-3.135100007E-2,6.711692080E-2
2.472332348E0,-9.882000275E-3,-5.690399930E-2,-3.847099841E-2,6.939550983E-2
2.477343502E0,-2.244899981E-2,-5.933199823E-2,-2.647100016E-2,6.873832596E-2
2.482355192E0,-1.610399969E-2,-5.248000100E-2,-1.207599975E-2,5.620782046E-2
2.487366584E0,3.947000019E-3,-3.901199996E-2,4.730000161E-3,3.949541558E-2
2.492377892E0,4.916999955E-3,-1.662299968E-2,2.150800079E-2,2.762417610E-2
2.497389046E0,8.151999675E-3,4.260000132E-4,4.066599905E-2,4.147722331E-2
2.502400659E0,-2.570000011E-3,7.675999776E-3,4.543500021E-2,4.615046172E-2
2.507412046E0,9.040000150E-4,1.475400012E-2,5.260000005E-2,5.463751222E-2
2.512423416E0,-4.239999980E-4,1.459100004E-2,5.497999862E-2,5.688477218E-2
2.517434801E0,2.855000086E-3,2.133399993E-2,5.018199980E-2,5.460333033E-2
2.522446171E0,1.202999963E-3,2.228999976E-3,4.301799834E-2,4.309250319E-2
2.527457555E0,-7.484000176E-3,-1.780000021E-4,4.302399978E-2,4.367043050E-2
2.532468940E0,-1.137899980E-2,-7.346999831E-3,5.020999908E-2,5.200484642E-2
2.537480334E0,-5.925000180E-3,-1.448400039E-2,5.262500048E-2,5.490248236E-2
2.542491718E0,8.596999571E-3,-2.159000002E-2,5.507399887E-2,5.977609768E-2
2.547503102E0,1.118999999E-2,-2.169400081E-2,5.033700168E-2,5.594335983E-2
2.552514568E0,1.611199975E-2,-3.820199892E-2,3.125999868E-2,5.192472219E-2
2.557525955E0,1.171999983E-2,-3.582900017E-2,3.130200133E-2,4.899888710E-2
2.562537272E0,5.469999742E-4,-4.059899971E-2,2.653400041E-2,4.850392937E-2
2.567548654E0,-5.609999876E-3,-3.372500092E-2,1.456299983E-2,3.716084969E-2
2.572560092E0,-2.779100090E-2,-3.173699975E-2,2.544000046E-3,4.226167082E-2
2.577571401E0,-3.539900109E-2,-2.996999957E-2,-9.495000355E-3,4.734390335E-2
2.582582861E0,-3.809000179E-2,-1.443200000E-2,-1.916700043E-2,4.501671651E-2
2.587594181E0,-4.545300081E-2,4.569999874E-4,-1.451199967E-2,4.771563964E-2
2.592605640E0,-4.109299928E-2,3.229999915E-3,-7.451000158E-3,4.188776543E-2
2.597617027E0,-5.560100079E-2,1.966100000E-2,-4.260000132E-4,5.897633157E-2
2.602628421E0,-4.883300141E-2,1.916900091E-2,4.217000213E-3,5.262979872E-2
2.607639805E0,-4.707200080E-2,1.844399981E-2,1.365699992E-2,5.236857870E-2
2.612651190E0,-3.630299866E-2,3.160500154E-2,2.072999999E-2,5.240722024E-2
2.617662574E0,-3.519799933E-2,3.496399894E-2,2.301800065E-2,5.469194395E-2
2.622673954E0,-2.953599952E-2,3.120099939E-2,2.532799914E-2,4.987369218E-2
2.627685338E0,-1.474700030E-2,4.605900124E-2,3.004899994E-2,5.693722868E-2
2.632696726E0,-1.670599915E-2,5.815000087E-2,3.237099946E-2,6.861774271E-2
2.637708111E0,-1.642300002E-2,6.053800136E-2,2.274000086E-2,6.672085264E-2
2.642719487E0,-6.990999915E-3,5.821499974E-2,1.792999916E-2,6.131349887E-2
2.647730872E0,4.459000193E-3,4.679799825E-2,8.376999758E-3,4.775049160E-2
2.652742242E0,1.072099991E-2,2.650300041E-2,-3.520000027E-3,2.880519519E-2
2.657753627E0,4.370000097E-4,9.190999903E-3,1.337999944E-3,9.298155305E-3
2.662765241E0,-1.183300000E-2,-1.225600019E-2,1.576199941E-2,2.320926658E-2
2.667776627E0,-2.378300019E-2,-2.378300019E-2,2.299400046E-2,4.074292887E-2
2.672787786E0,-2.383000031E-2,-2.104599960E-2,2.305500023E-2,3.927258649E-2
2.677799400E0,-3.780600056E-2,-2.773799933E-2,2.309199981E-2,5.226787485E-2
2.682810786E0,-1.663400047E-2,-1.108899992E-2,3.752600029E-2,4.251889684E-2
2.687822181E0,-1.692599989E-2,-4.354999866E-3,3.998500109E-2,4.363777960E-2
2.692833566E0,-7.902000099E-3,-1.650000049E-4,5.203599855E-2,5.263282223E-2
2.697844728E0,-8.302000351E-3,-3.138999920E-3,5.929199979E-2,5.995262938E-2
2.702856111E0,5.413999781E-3,8.490000037E-4,8.810299635E-2,8.827326980E-2
2.707867726E0,7.375000045E-3,-2.192999935E-3,9.776300192E-2,9.806530691E-2
2.712879123E0,2.662000014E-3,-1.908800006E-2,1.217570007E-1,1.232728892E-1
2.717890277E0,-1.335600019E-2,-2.146999910E-2,1.122130007E-1,1.150265235E-1
2.722901890E0,-3.109800071E-2,-2.600900084E-2,8.109100163E-2,9.066037899E-2
2.727913267E0,-2.750100009E-2,-2.328499965E-2,3.562999889E-2,5.067536913E-2
2.732924652E0,-3.819200024E-2,-9.006000124E-3,-2.659999998E-3,3.932953751E-2
2.737936036E0,-3.731000051E-2,2.547000069E-3,-3.135599941E-2,4.880288973E-2
2.742947416E0,-3.689099848E-2,1.150299981E-2,-4.087800160E-2,5.625189587E-2
2.747958800E0,-2.751999907E-2,2.012499981E-2,-2.164099924E-2,4.038191197E-2
2.752970185E0,-2.102700062E-2,1.668800041E-2,-9.546999820E-3,2.849156574E-2
2.757981556E0,-2.656899951E-2,3.887000028E-3,-7.013000082E-3,2.775252555E-2
2.762992940E0,-3.674799949E-2,-3.204900026E-2,2.705000108E-3,4.883514011E-2
2.768004324E0,-4.898300022E-2,-5.787099898E-2,1.240999997E-2,7.682704558E-2
2.773015722E0,-6.314399838E-2,-8.321899921E-2,2.687400021E-2,1.078646293E-1
2.778027106E0,-7.917299867E-2,-1.059119999E-1,4.130699858E-2,1.385351348E-1
2.783038491E0,-9.246499836E-2,-1.097669974E-1,3.896300122E-2,1.487167950E-1
2.788049876E0,-1.007009968E-1,-1.046300009E-1,4.616700113E-2,1.523795257E-1
2.793061261E0,-9.246800095E-2,-9.082099795E-2,2.945300005E-2,1.329144991E-1
2.798072646E0,-7.982700318E-2,-6.396999955E-2,3.429200128E-2,1.078909293E-1
2.803084031E0,-7.704100013E-2,-4.291800037E-2,2.718199976E-2,9.228288881E-2
2.808095416E0,-6.046300009E-2,-2.516500093E-2,2.968499996E-2,7.190445657E-2
2.813106801E0,-6.079500169E-2,-2.441499941E-2,5.882000085E-3,6.577782568E-2
2.818118185E0,-3.806800023E-2,-7.431999780E-3,-1.545699965E-2,4.175315677E-2
2.823129569E0,-2.535199933E-2,-4.871999845E-3,-3.675600141E-2,4.491618742E-2
2.828141020E0,-1.363000018E-3,-9.104000404E-3,-4.123900086E-2,4.225394401E-2
2.833152407E0,2.205600031E-2,5.843999796E-3,-5.284800008E-2,5.756327471E-2
2.838163787E0,3.568999842E-2,1.392200030E-2,-4.289299995E-2,5.751006455E-2
2.843175171E0,5.156299844E-2,2.462000027E-2,-3.052200004E-2,6.478024165E-2
2.848186561E0,5.799899995E-2,2.863599919E-2,-2.054299973E-2,6.786692333E-2
2.853197869E0,6.685499847E-2,4.485300183E-2,-2.252100036E-2,8.359771558E-2
2.858209255E0,8.275800198E-2,4.731300101E-2,-2.943000058E-3,9.537330971E-2
2.863220640E0,8.211000264E-2,5.952199921E-2,1.902000047E-2,1.031827570E-1
2.868232101E0,8.873099834E-2,5.571899936E-2,3.619699925E-2,1.108513406E-1
2.873243503E0,8.141099662E-2,6.643500179E-2,6.291899830E-2,1.224751411E-1
2.878255117E0,8.854299784E-2,6.326799840E-2,8.724600077E-2,1.394796284E-1
2.883266272E0,8.637599647E-2,7.216200233E-2,9.480600059E-2,1.471609496E-1
2.888277573E0,9.153600037E-2,7.168799639E-2,1.167159975E-1,1.647441418E-1
2.893289035E0,1.085439995E-1,7.377599925E-2,1.051379964E-1,1.681627074E-1
2.898300421E0,1.067800000E-1,8.067800105E-2,1.078919992E-1,1.719057641E-1
2.903311791E0,1.029729992E-1,8.986499906E-2,1.034450009E-1,1.714060234E-1
2.908323175E0,8.090999722E-2,9.197200090E-2,9.174799919E-2,1.530456532E-1
2.913334789E0,7.579299808E-2,9.423200041E-2,6.089499965E-2,1.353973761E-1
2.918345960E0,6.847999990E-2,8.504699916E-2,7.309900224E-2,1.314000250E-1
2.923357342E0,5.213600025E-2,7.398399711E-2,6.611099839E-2,1.120823735E-1
2.928368727E0,1.069399994E-2,4.473700002E-2,7.337500155E-2,8.660052920E-2
2.933380112E0,-1.578599960E-2,1.667100005E-2,9.015200287E-2,9.302958480E-2
2.938391491E0,-5.543100089E-2,-5.847000051E-3,8.289500326E-2,9.989176560E-2
2.943402876E0,-7.310900092E-2,-2.749300003E-2,8.995299786E-2,1.191315781E-1
2.948414261E0,-9.492199868E-2,-3.204099834E-2,1.113120019E-1,1.497570472E-1
2.953425646E0,-1.090739965E-1,-2.708799951E-2,1.350249946E-1,1.756776753E-1
2.958437050E0,-1.135160029E-1,-8.329999633E-3,1.659110039E-1,2.012007282E-1
2.963448435E0,-1.226539984E-1,2.792000072E-3,1.944009960E-1,2.298772408E-1
2.968459830E0,-1.271730065E-1,-9.867999703E-3,1.965820044E-1,2.343391463E-1
2.973471215E0,-1.179239973E-1,-1.549800020E-2,1.653120071E-1,2.036524413E-1
2.978482603E0,-1.138919964E-1,-1.908399910E-2,1.053669974E-1,1.563259096E-1
2.983493987E0,-8.256000280E-2,-2.520900033E-2,3.596499935E-2,9.351539413E-2
2.988505371E0,-5.031000078E-2,-1.534899976E-2,-1.416600030E-2,5.447351225E-2
2.993516746E0,-2.871399932E-2,-1.771800034E-2,-9.169000201E-3,3.496415103E-2
2.998528131E0,-2.896700054E-2,-3.902300075E-2,1.020800043E-2,4.965969171E-2
3.003539516E0,-4.558499902E-2,-5.309399962E-2,3.434100002E-2,7.795042793E-2
3.008551126E0,-5.022399873E-2,-6.710399687E-2,5.830000155E-3,8.402014845E-2
3.013562512E0,-5.707700178E-2,-6.706699729E-2,-8.333999664E-3,8.846028379E-2
3.018573897E0,-7.308000326E-2,-4.875700176E-2,-3.927399963E-2,9.623086378E-2
3.023585287E0,-7.006599754E-2,-2.414700016E-2,-5.344200134E-2,9.136941029E-2
3.028596441E0,-6.499700248E-2,1.983999973E-3,-7.714299858E-2,1.008939484E-1
3.033608054E0,-5.785299838E-2,2.496800013E-2,-6.491299719E-2,9.046583695E-2
3.038619441E0,-2.780199982E-2,4.029300064E-2,-7.651600242E-2,9.083598252E-2
3.043630594E0,-1.492800005E-2,5.987200141E-2,-6.174999848E-2,8.729584211E-2
3.048641977E0,6.790999789E-3,7.659800351E-2,-5.887399986E-2,9.684792037E-2
3.053653592E0,2.110799961E-2,8.606500179E-2,-2.246900089E-2,9.141984566E-2
3.058664964E0,3.517000005E-2,9.317400306E-2,-2.786000026E-3,9.962974228E-2
3.063676349E0,5.598400161E-2,9.579499811E-2,7.364999969E-3,1.111986210E-1
3.068687503E0,7.198400050E-2,1.011520028E-1,3.905599937E-2,1.301491263E-1
3.073698885E0,7.636199892E-2,9.053599834E-2,7.549999654E-2,1.404570089E-1
3.078710270E0,7.643999904E-2,5.970399827E-2,9.513200074E-2,1.358592596E-1
3.083721885E0,3.767000139E-2,1.860100031E-2,1.073990017E-1,1.153237694E-1
3.088733272E0,2.980000107E-3,-3.710500151E-2,1.146949977E-1,1.205844270E-1
3.093744690E0,-3.024999984E-2,-6.519299746E-2,9.790900350E-2,1.214551867E-1
3.098756075E0,-1.097199973E-2,-6.885699928E-2,8.352000266E-2,1.087991819E-1
3.103767460E0,-8.259000257E-3,-6.061699986E-2,6.911599636E-2,9.230196483E-2
3.108778834E0,-1.482500043E-2,-5.244800076E-2,5.708000064E-2,7.892211283E-2
3.113790294E0,-1.658600010E-2,-3.751499951E-2,4.265699908E-2,5.917846025E-2
3.118801594E0,-1.141200028E-2,-2.071700059E-2,3.305000067E-2,4.064148629E-2
3.123812976E0,-1.107400004E-2,-9.127000347E-3,4.020500183E-2,4.268931698E-2
3.128824376E0,-1.099199988E-2,-1.878100075E-2,3.780699894E-2,4.362246232E-2
3.133835760E0,-1.799999923E-2,-1.661000028E-2,3.540299833E-2,4.304955717E-2
3.138847140E0,-2.716300078E-2,-9.859000333E-3,4.255399853E-2,5.143803349E-2
3.143858525E0,-2.225299925E-2,-8.074999787E-3,3.776700050E-2,4.457295058E-2
3.148869910E0,-1.536600012E-2,1.216700021E-2,3.063699976E-2,3.636998224E-2
3.153881285E0,4.119999940E-4,2.019000053E-2,2.596499957E-2,3.289357184E-2
3.158892670E0,4.000999965E-3,4.184100032E-2,2.850399911E-2,5.078538445E-2
3.163904041E0,2.362200059E-2,3.951700032E-2,5.264399946E-2,6.993556252E-2
3.168915426E0,2.158199996E-2,4.421500117E-2,5.047700182E-2,7.048884140E-2
3.173926806E0,1.483900007E-2,1.614799909E-2,5.068299919E-2,5.522427188E-2
3.178938190E0,5.927000195E-3,-1.345700026E-2,5.563899875E-2,5.754926905E-2
3.183949579E0,1.890999964E-3,-3.986199945E-2,4.382300004E-2,5.927065222E-2
3.188960963E0,-8.996999823E-3,-7.011900097E-2,4.152999818E-2,8.199000581E-2
3.193972361E0,-1.255000010E-2,-9.250599891E-2,3.681899980E-2,1.003518863E-1
3.198983746E0,-2.520100027E-2,-1.095220000E-1,2.248300053E-2,1.146108381E-1
3.203995131E0,-3.721499816E-2,-1.189410016E-1,8.084000088E-3,1.248890268E-1
3.209006516E0,-4.178100079E-2,-1.372330040E-1,1.039899979E-2,1.438286780E-1
3.214017901E0,-6.456299871E-2,-1.247320026E-1,3.066000063E-3,1.404843537E-1
3.219029286E0,-7.265800238E-2,-1.033089980E-1,-1.385399979E-2,1.270585208E-1
3.224040671E0,-7.815299928E-2,-8.710800111E-2,-2.360799909E-2,1.193860661E-1
3.229052130E0,-6.035900116E-2,-5.502400175E-2,-3.568100184E-2,8.912902828E-2
3.234063517E0,-5.467399955E-2,-2.615699917E-2,-2.379900031E-2,6.511395586E-2
3.239074830E0,-5.611800030E-2,-1.660099998E-2,-2.149000019E-2,6.234294881E-2
3.244086289E0,-4.823800176E-2,1.827199943E-2,0.000000000E0,5.158265966E-2
3.249097686E0,-4.049000144E-2,3.133799881E-2,1.672199927E-2,5.386219124E-2
3.254109070E0,-3.289899975E-2,5.111400038E-2,4.543200135E-2,7.588841787E-2
3.259120368E0,-2.776500024E-2,6.804499775E-2,5.740400031E-2,9.325361231E-2
3.264131828E0,-1.585800014E-2,7.763200253E-2,6.463000178E-2,1.022508734E-1
3.269143137E0,2.540000132E-4,8.228199929E-2,7.669699937E-2,1.124847618E-1
3.274154500E0,1.125000045E-2,9.839200228E-2,7.683800161E-2,1.253460295E-1
3.279165962E0,3.335399926E-2,9.764099866E-2,7.705800235E-2,1.287796164E-1
3.284177348E0,3.370200098E-2,9.213099629E-2,6.772699952E-2,1.192094451E-1
3.289188718E0,2.933200076E-2,6.825999916E-2,6.555499882E-2,9.908204491E-2
3.294200026E0,2.975700051E-2,3.799600154E-2,5.140399933E-2,7.050919344E-2
3.299211495E0,2.088899910E-2,1.333600003E-2,5.396100134E-2,5.938003743E-2
3.304222805E0,1.705599949E-2,-1.377000008E-3,3.495400026E-2,3.891767442E-2
3.309234187E0,4.215999972E-3,-1.094599999E-2,3.024699911E-2,3.244180216E-2
3.314245649E0,8.101000451E-3,-2.474500053E-2,4.228100181E-2,4.965505385E-2
3.319256959E0,-1.815300062E-2,-4.044999927E-2,3.507699817E-2,5.653432297E-2
3.324268341E0,-2.959699929E-2,-4.175499827E-2,2.782999910E-2,5.825779860E-2
3.329279731E0,-3.354499862E-2,-4.068699852E-2,3.251999989E-2,6.195360501E-2
3.334291116E0,-3.491799906E-2,-4.195699841E-2,3.958600014E-2,6.742927985E-2
3.339302505E0,-3.151899949E-2,-4.318900034E-2,2.750900015E-2,6.012887965E-2
3.344313890E0,-3.751499951E-2,-3.740999848E-2,2.499100007E-2,5.857843681E-2
3.349325260E0,-4.551799968E-2,-2.941500023E-2,3.201400116E-2,6.294463284E-2
3.354336645E0,-3.008200042E-2,-1.005700044E-2,2.473600022E-2,4.022362135E-2
3.359348030E0,-3.598799929E-2,4.139999859E-3,2.941199951E-2,4.666199103E-2
3.364359415E0,-2.785399929E-2,1.796999946E-2,2.694400027E-2,4.271703767E-2
3.369370800E0,-8.483000100E-3,3.834100068E-2,2.215900086E-2,4.508896697E-2
3.374382265E0,5.601999816E-3,4.661399871E-2,1.981499977E-2,5.095960649E-2
3.379393651E0,2.610800043E-2,4.315600172E-2,3.907100111E-2,6.380134245E-2
3.384405026E0,2.737700008E-2,5.379100144E-2,4.158800095E-2,7.329757017E-2
3.389416410E0,3.796299919E-2,4.553300142E-2,4.412600026E-2,7.390228295E-2
3.394427795E0,2.737299912E-2,3.756900132E-2,3.466099873E-2,5.798358193E-2
3.399439098E0,4.036999866E-2,3.215799853E-2,3.240200132E-2,6.094065434E-2
3.404450480E0,2.743499912E-2,3.160399944E-2,3.010600060E-2,5.155446857E-2
3.409461938E0,1.495200023E-2,3.112100065E-2,3.255499899E-2,4.745426168E-2
3.414473248E0,2.143500000E-2,2.367899939E-2,1.826499961E-2,3.679353813E-2
3.419484707E0,1.848500036E-2,1.407700032E-2,1.353000011E-2,2.688713594E-2
3.424496084E0,2.963200025E-2,1.199999970E-4,2.077399939E-2,3.618879509E-2
3.429507392E0,1.260500029E-2,-2.966799960E-2,2.795300074E-2,4.266669055E-2
3.434518846E0,1.938099973E-2,-3.767000139E-2,3.513599932E-2,5.503808321E-2
3.439530233E0,1.678800024E-2,-5.924399942E-2,3.510800004E-2,7.088201525E-2
3.444541540E0,-4.125300050E-2,-7.326100022E-2,4.207500070E-2,9.401749777E-2
3.449552909E0,-6.503699720E-2,-7.756099850E-2,2.982999943E-2,1.055241601E-1
3.454564371E0,-5.563800037E-2,-7.480700314E-2,4.393799976E-2,1.030641675E-1
3.459575757E0,-3.026499972E-2,-5.129700154E-2,4.377400130E-2,7.391559893E-2
3.464587064E0,-1.042400021E-2,-4.467500001E-2,3.889200091E-2,6.014235730E-2
3.469598523E0,-1.910400018E-2,-3.367599845E-2,3.400100023E-2,5.152769848E-2
3.474609833E0,-1.358199958E-2,-1.610000059E-2,3.870600089E-2,4.406625962E-2
3.479621293E0,-1.530800015E-2,-3.758999985E-3,3.864099830E-2,4.173238190E-2
3.484632679E0,-3.230999922E-3,5.832000170E-3,3.863099962E-2,3.920211370E-2
3.489644064E0,1.401999965E-3,-8.139999583E-3,3.863700107E-2,3.951003731E-2
3.494655449E0,-1.019600034E-2,-7.761000190E-3,5.295599997E-2,5.448421312E-2
3.499666752E0,-3.075800091E-2,-1.905800030E-2,4.568000138E-2,5.827456153E-2
3.504678135E0,-4.376300052E-2,-3.465700150E-2,3.835999966E-2,6.773328237E-2
3.509689520E0,-6.092900038E-2,-4.044200107E-2,2.859099954E-2,7.851970321E-2
3.514700966E0,-6.828600168E-2,-4.378600046E-2,3.315600008E-2,8.763282606E-2
3.519712353E0,-5.458100140E-2,-2.376100048E-2,1.145199966E-2,6.062028665E-2
3.524723737E0,-4.373300076E-2,-2.754800022E-2,8.929999545E-3,5.245200247E-2
3.529735122E0,-4.262499884E-2,-2.669000067E-2,2.796199918E-2,5.754233276E-2
3.534746507E0,-3.691300005E-2,-1.889600046E-2,2.547699958E-2,4.866935292E-2
3.539757891E0,-1.976200007E-2,-1.371499989E-2,2.543600090E-2,3.500897043E-2
3.544769276E0,-1.008599997E-2,-4.112000111E-3,2.542500012E-2,2.765983679E-2
3.549780689E0,-1.240499970E-2,2.819000045E-3,3.260200098E-2,3.499601758E-2
3.554792073E0,-3.099700063E-2,9.537000209E-3,2.059699968E-2,3.841880811E-2
3.559803457E0,-2.354500070E-2,-1.440000051E-4,1.431999961E-3,2.358894694E-2
3.564814836E0,-3.030999936E-2,1.147199981E-2,-9.899999714E-4,3.242349366E-2
3.569826146E0,-3.676500171E-2,1.352399960E-2,1.809499972E-2,4.315081611E-2
3.574837592E0,-2.903199941E-2,1.093500014E-2,2.044199966E-2,3.715247728E-2
3.579848978E0,-3.308299929E-2,1.087400038E-2,4.191499949E-2,5.449399883E-2
3.584860367E0,-1.838600077E-2,1.081500016E-2,3.949400038E-2,4.488636005E-2
3.589871675E0,-1.574099995E-2,6.233999971E-3,3.707500175E-2,4.075779177E-2
3.594883057E0,-2.225200087E-2,-9.689999744E-3,4.896799847E-2,5.465265330E-2
3.599894447E0,-2.617800049E-2,-2.036999911E-2,5.365699902E-2,6.308167815E-2
3.604905831E0,-4.845999926E-2,-1.900199987E-2,4.631400108E-2,6.967376999E-2
3.609917216E0,-5.368300155E-2,-1.987300068E-2,3.176200017E-2,6.546468870E-2
3.614928678E0,-4.928100109E-2,-1.897000009E-3,3.396100178E-2,5.987959018E-2
3.619940064E0,-2.173200063E-2,3.429299966E-2,3.384999931E-2,5.285936180E-2
3.624951454E0,-4.207000136E-3,6.035099924E-2,1.943000033E-2,6.354106445E-2
3.629962839E0,2.449600026E-2,8.122800291E-2,3.140699863E-2,9.046790618E-2
3.634974223E0,5.250699818E-2,9.932699800E-2,2.430599928E-2,1.149505067E-1
3.639985608E0,5.890399963E-2,1.054499969E-1,2.199699916E-2,1.227731688E-1
3.644996992E0,6.762500107E-2,1.023420021E-1,2.686800063E-2,1.255743430E-1
3.650008385E0,5.758000165E-2,9.496100247E-2,7.768999785E-3,1.113256751E-1
3.655019769E0,4.789499938E-2,9.035000205E-2,7.776999846E-3,1.025550368E-1
3.660031153E0,4.088599980E-2,8.843699843E-2,1.014699973E-2,9.795779333E-2
3.665042553E0,3.185499832E-2,7.284200191E-2,2.204499952E-2,8.250260702E-2
3.670053863E0,9.194999933E-3,6.015099958E-2,1.233700011E-2,6.208777936E-2
3.675065322E0,3.401000053E-3,4.325700179E-2,1.218200009E-2,4.506812767E-2
3.680076709E0,7.500000356E-5,2.674599923E-2,2.441999968E-3,2.685735400E-2
3.685088093E0,3.785999957E-3,1.294399984E-2,3.817600012E-2,4.048812064E-2
3.690099464E0,9.522000328E-3,-5.270999856E-3,3.565200046E-2,3.727622656E-2
3.695110772E0,-3.641000018E-3,-3.491400182E-2,4.506300017E-2,5.712196065E-2
3.700122154E0,-2.619999868E-4,-5.243000016E-2,5.209900066E-2,7.391400023E-2
3.705133539E0,-1.802900061E-2,-5.811699852E-2,6.389199942E-2,8.823161548E-2
3.710144924E0,-3.773299977E-2,-7.792799920E-2,5.410699919E-2,1.020985783E-1
3.715156394E0,-5.704300106E-2,-8.125100285E-2,4.907999933E-2,1.107450936E-1
3.720167704E0,-4.817999899E-2,-9.179700166E-2,3.931799904E-2,1.108778917E-1
3.725179145E0,-6.302700192E-2,-9.077399969E-2,4.389899969E-2,1.189093948E-1
3.730190455E0,-6.148400158E-2,-8.072999865E-2,4.134099931E-2,1.095750581E-1
3.735201838E0,-5.316900089E-2,-8.752699941E-2,5.556999892E-2,1.165158490E-1
3.740213202E0,-4.523799941E-2,-8.732999861E-2,4.829699919E-2,1.095700934E-1
3.745224664E0,-4.461000115E-2,-5.236800015E-2,5.540699884E-2,8.833116756E-2
3.750235965E0,-4.411099851E-2,-3.939300030E-2,6.013900042E-2,8.434623900E-2
3.755247347E0,-5.525700003E-2,-3.142900020E-2,7.681199908E-2,9.970557311E-2
3.760258732E0,-5.444499850E-2,-7.437000051E-3,1.102439985E-1,1.231799741E-1
3.765270197E0,-6.066700071E-2,1.346100029E-2,1.173489988E-1,1.327873150E-1
3.770281584E0,-4.119699821E-2,-8.232999593E-3,1.268949956E-1,1.336686756E-1
3.775292907E0,-2.711299993E-2,-2.483999915E-2,8.145199716E-2,8.936760131E-2
3.780304289E0,-4.255000036E-3,-4.812199995E-2,1.692499965E-2,5.118874405E-2
3.785315678E0,3.745000111E-3,-7.084500045E-2,-3.320600092E-2,7.833056626E-2
3.790327063E0,-1.662500016E-2,-9.076000005E-2,-4.987100139E-2,1.048851039E-1
3.795338438E0,-2.957200073E-2,-9.645699710E-2,-1.391100045E-2,1.018428763E-1
3.800349823E0,-3.528299928E-2,-1.138240024E-1,1.247000042E-2,1.198177553E-1
3.805361208E0,-3.856199980E-2,-1.124539971E-1,1.252999995E-2,1.195404961E-1
3.810372593E0,-2.335000038E-2,-1.091559976E-1,-1.127799973E-2,1.121937949E-1
3.815383978E0,-1.345600002E-2,-7.840199769E-2,-5.177700147E-2,9.491467252E-2
3.820395363E0,-1.561900042E-2,-5.798099935E-2,-6.593900174E-2,8.918352656E-2
3.825406753E0,3.032000037E-3,-3.841299936E-2,-7.285200059E-2,8.241459540E-2
3.830418138E0,-2.155999886E-3,-1.716700010E-2,-5.344099924E-2,5.617200929E-2
3.835429522E0,6.829999853E-3,-1.987900026E-2,-1.726100035E-2,2.719863383E-2
3.840440925E0,-9.983000346E-3,-1.113200001E-2,6.916000042E-3,1.647461007E-2
3.845452309E0,-2.997000003E-3,8.851000108E-3,1.675700024E-2,1.918643450E-2
3.850463706E0,1.580000040E-3,2.585400082E-2,1.703700051E-2,3.100298606E-2
3.855475091E0,1.319700014E-2,4.480500147E-2,2.930199914E-2,5.513851759E-2
3.860486482E0,3.623199835E-2,6.800500304E-2,2.009000070E-2,7.963068674E-2
3.865497867E0,3.324500099E-2,7.687100023E-2,6.070000120E-3,8.397157655E-2
3.870509252E0,5.381700024E-2,9.505899996E-2,1.123400033E-2,1.098120474E-1
3.875520637E0,6.017300114E-2,1.062230021E-1,2.117200010E-2,1.239046804E-1
3.880532022E0,5.733300000E-2,1.104400009E-1,1.432800014E-2,1.252571686E-1
3.885543407E0,5.241499841E-2,1.126220003E-1,7.451999933E-3,1.244450855E-1
3.890554805E0,4.550300166E-2,1.034839973E-1,7.714000065E-3,1.133091640E-1
3.895566189E0,3.896199912E-2,9.719199687E-2,2.468599938E-2,1.075812260E-1
3.900577573E0,2.104200050E-2,8.655200154E-2,1.527999993E-2,9.037418411E-2
3.905588972E0,8.430999704E-3,7.182899863E-2,2.017199993E-2,7.508259706E-2
3.910600357E0,-6.124000065E-3,5.063800141E-2,2.022599988E-2,5.487077214E-2
3.915611732E0,-8.620999753E-3,4.181100056E-2,2.744499967E-2,5.075144738E-2
3.920623117E0,-1.327999961E-2,3.563499823E-2,3.703000024E-2,5.307949139E-2
3.925634531E0,-1.317999978E-2,2.273000032E-2,2.746699937E-2,3.801054278E-2
3.930645916E0,-1.996699907E-2,9.960000170E-4,3.700700030E-2,4.206175387E-2
3.935657301E0,-3.119499981E-2,1.247499976E-2,3.694999963E-2,4.994052568E-2
3.940668703E0,-3.043900058E-2,9.638000280E-3,5.364099890E-2,6.242419858E-2
3.945680087E0,-2.493499964E-2,2.081499994E-2,5.598400161E-2,6.472423708E-2
3.950691471E0,-1.262800023E-2,2.237300016E-2,5.596899986E-2,6.158365426E-2
3.955702850E0,-7.658999879E-3,2.853100002E-2,5.357899889E-2,6.118322780E-2
3.960714235E0,-5.129999947E-3,2.520699985E-2,4.162000120E-2,4.892784729E-2
3.965725383E0,-2.622999949E-3,1.971900091E-2,3.923000023E-2,4.398536169E-2
3.970736765E0,-1.412700024E-2,1.444800012E-2,3.680500016E-2,4.198719900E-2
3.975748385E0,-1.134500001E-2,2.432999900E-3,4.155699909E-2,4.314640989E-2
3.980759541E0,-1.791599952E-2,-2.192999935E-3,4.867900163E-2,5.191760286E-2
3.985771145E0,-1.030100044E-2,-4.354999866E-3,4.863600060E-2,4.990528217E-2
3.990782532E0,-5.212000106E-3,-8.721999824E-3,3.424299881E-2,3.571863930E-2
3.995793921E0,4.472000059E-3,-1.533399988E-2,5.097299814E-2,5.341700924E-2
4.000805306E0,-2.400000114E-3,-1.240800042E-2,4.375699908E-2,4.554550958E-2
4.005816704E0,-1.613100059E-2,-4.875000101E-3,2.933700010E-2,3.383244569E-2
4.010828088E0,-1.555499993E-2,1.029999985E-4,1.731799915E-2,2.327835318E-2
4.015839478E0,-3.460000036E-3,5.055999849E-3,1.251799986E-2,1.393682371E-2
4.020850632E0,5.969000049E-3,7.608000189E-3,1.970499940E-2,2.194988906E-2
4.025862014E0,1.041499991E-2,1.247000042E-2,1.973400079E-2,2.556176678E-2
4.030873625E0,2.873699926E-2,1.047199965E-2,2.697999962E-2,4.078478003E-2
4.035885011E0,3.508200124E-2,-5.579999997E-4,4.857200012E-2,5.991909020E-2
4.040896165E0,8.984999731E-3,1.219400018E-2,5.332199857E-2,5.543157396E-2
4.045907548E0,4.734999966E-3,1.777300052E-2,5.086800084E-2,5.409115714E-2
4.050918914E0,7.229999756E-4,2.801099978E-2,4.839399830E-2,5.592063938E-2
4.055930298E0,-1.241500024E-2,2.662299946E-2,4.108899832E-2,5.050962397E-2
4.060941683E0,-2.499499917E-2,1.612200029E-2,6.004900113E-2,6.701157671E-2
4.065953307E0,-4.190500081E-2,-1.014100015E-2,5.980699882E-2,7.372751240E-2
4.070964463E0,-4.905600101E-2,-2.848199941E-2,4.757200181E-2,7.403249882E-2
4.075975822E0,-5.122099817E-2,-5.085400119E-2,5.206000060E-2,8.899417820E-2
4.080987206E0,-5.809000134E-2,-7.024200261E-2,4.935299978E-2,1.036537784E-1
4.085998822E0,-6.702300161E-2,-7.274000347E-2,4.661900178E-2,1.093458832E-1
4.091009964E0,-6.176000088E-2,-7.058099657E-2,4.629699886E-2,1.045915240E-1
4.096021577E0,-6.125399843E-2,-5.461499840E-2,3.880399838E-2,9.077775424E-2
4.101032733E0,-3.763899952E-2,-3.699399903E-2,2.421800047E-2,5.806687349E-2
4.106044115E0,-2.649700083E-2,-3.162999824E-2,3.121699952E-2,5.174020584E-2
4.111055500E0,-6.490999833E-3,-1.499800012E-2,1.914500073E-2,2.517149457E-2
4.116066885E0,-1.141999965E-3,-2.000200003E-2,1.427999977E-2,2.460289745E-2
4.121078269E0,-1.000200026E-2,-2.979600057E-2,1.418800000E-2,3.448392384E-2
4.126089654E0,-1.873500086E-2,-2.799200080E-2,6.912999786E-3,3.438519932E-2
4.131101039E0,-3.667400032E-2,-4.522399977E-2,6.783000194E-3,5.861912270E-2
4.136112424E0,-8.451200277E-2,-5.312899873E-2,-6.239999784E-4,9.982664220E-2
4.141123809E0,-1.149969995E-1,-6.589800119E-2,-1.286699995E-2,1.331631186E-1
4.146135194E0,-1.170369983E-1,-6.023500115E-2,-2.268400043E-2,1.335682530E-1
4.151146584E0,-1.077890024E-1,-5.985400081E-2,-3.243599832E-2,1.274875070E-1
4.156157969E0,-9.688500315E-2,-6.012799963E-2,8.132999763E-3,1.143163412E-1
4.161169357E0,-8.884999901E-2,-6.324999779E-2,1.524899993E-2,1.101245501E-1
4.166180741E0,-7.898200303E-2,-6.675700098E-2,1.045399997E-2,1.039420035E-1
4.171192125E0,-6.031300128E-2,-7.064200193E-2,5.727999844E-3,9.306320724E-2
4.176203490E0,-2.615400031E-2,-7.703000307E-2,-3.675000044E-3,8.143192697E-2
4.181214875E0,1.600299962E-2,-6.495799869E-2,8.600999601E-3,6.745083235E-2
4.186226270E0,5.460299924E-2,-5.807700008E-2,1.619900018E-2,8.134391847E-2
4.191237655E0,2.241699956E-2,-6.539700180E-2,-2.610000083E-3,6.918165808E-2
4.196248964E0,4.008800164E-2,-5.141999945E-2,-1.420199964E-2,6.672901178E-2
4.201260350E0,5.733000115E-2,-2.142900042E-2,-2.095600031E-2,6.469223322E-2
4.206271735E0,8.569099754E-2,-5.911999848E-3,-3.241999820E-2,9.180934095E-2
4.211283197E0,1.134560034E-1,1.885399967E-2,-2.707000077E-2,1.181546569E-1
4.216294492E0,1.174610034E-1,5.728799850E-2,-1.214700006E-2,1.312499588E-1
4.221305875E0,1.285690069E-1,8.116900176E-2,-2.592499927E-2,1.542416999E-1
4.226317245E0,1.234380007E-1,9.785199910E-2,-1.102699991E-2,1.579036050E-1
4.231328629E0,1.212399974E-1,1.285039932E-1,1.441000029E-3,1.766762285E-1
4.236340014E0,1.219360009E-1,1.355829984E-1,3.061299957E-2,1.849007667E-1
4.241351451E0,1.183789968E-1,1.266839951E-1,4.776199907E-2,1.798433487E-1
4.246362761E0,9.233299643E-2,1.300249994E-1,7.674200088E-2,1.769780139E-1
4.251374144E0,7.446999848E-2,1.033840030E-1,8.646699786E-2,1.539823837E-1
4.256385596E0,3.661400080E-2,7.782699913E-2,9.363800287E-2,1.271444156E-1
4.261396906E0,-2.187999897E-3,5.094100162E-2,7.912199944E-2,9.412791183E-2
4.266408289E0,-2.109899931E-2,4.128000140E-2,7.409899682E-2,8.740633625E-2
4.271419698E0,-4.417999834E-2,1.344799995E-2,6.421700120E-2,7.909831982E-2
4.276431083E0,-4.114500061E-2,5.146000069E-3,6.870499998E-2,8.024817390E-2
4.281442471E0,-5.928900093E-2,-1.214099955E-2,6.357900053E-2,8.777743907E-2
4.286453933E0,-7.706200331E-2,-2.432899922E-2,6.798599660E-2,1.056056262E-1
4.291465258E0,-7.359199971E-2,-3.841400146E-2,6.762699783E-2,1.070739406E-1
4.296476640E0,-7.965499908E-2,-4.285199940E-2,5.769300088E-2,1.072832470E-1
4.301488039E0,-6.945999712E-2,-3.560300171E-2,5.977499858E-2,9.831233588E-2
4.306499424E0,-7.839699835E-2,-2.399699949E-2,5.229200050E-2,9.724401601E-2
4.311510808E0,-7.789699733E-2,-2.897500060E-2,5.439199880E-2,9.932765167E-2
4.316522193E0,-7.283800095E-2,-6.070999894E-3,4.934899881E-2,8.819044793E-2
4.321533578E0,-7.036499679E-2,1.389100030E-2,5.151199922E-2,8.830446606E-2
4.326544963E0,-5.178900063E-2,3.783499822E-2,4.417499900E-2,7.787822682E-2
4.331556104E0,-4.080300033E-2,5.642199889E-2,3.927600011E-2,7.994329853E-2
4.336567717E0,-2.780699916E-2,6.521999836E-2,4.398600012E-2,8.343647641E-2
4.341579104E0,-2.210099995E-2,7.845100015E-2,4.392699897E-2,9.258830846E-2
4.346590267E0,-7.162000053E-3,9.371899813E-2,4.151000082E-2,1.027503043E-1
4.351601880E0,7.445999887E-3,9.227500111E-2,3.912099823E-2,1.005015982E-1
4.356613031E0,1.242200006E-2,9.330599755E-2,4.870099947E-2,1.059816145E-1
4.361624414E0,1.743499935E-2,7.358899713E-2,5.108499900E-2,9.126333778E-2
4.366636015E0,-1.019299962E-2,6.622599810E-2,3.185100108E-2,7.419074293E-2
4.371647171E0,-2.050399967E-2,4.991900176E-2,3.409399837E-2,6.383354497E-2
4.376658554E0,-3.061700054E-2,4.588099942E-2,1.477800030E-2,5.710390636E-2
4.381669938E0,-3.340400010E-2,3.744100034E-2,1.458500046E-2,5.225301875E-2
4.386681323E0,-2.449100092E-2,3.409000114E-2,1.919700019E-2,4.615692927E-2
4.391692717E0,-2.049499936E-2,2.625999972E-2,1.663599908E-2,3.723424566E-2
4.396704102E0,-2.343999967E-2,1.421200018E-2,2.601099946E-2,3.778871030E-2
4.401715501E0,-1.683500037E-2,-4.360000137E-3,4.973300174E-2,5.268584535E-2
4.406726886E0,-2.663799934E-2,-8.329000324E-3,4.231600091E-2,5.069121411E-2
4.411738271E0,-2.438700013E-2,-1.675100066E-2,5.642500147E-2,6.371108686E-2
4.416749675E0,-2.203599922E-2,-2.254199982E-2,5.137800053E-2,6.027790603E-2
4.421761060E0,-2.435100079E-2,-1.648999937E-2,4.632600024E-2,5.487248506E-2
4.426772445E0,-5.630000029E-3,-1.062299963E-2,5.089199916E-2,5.229283507E-2
4.431784087E0,-1.071199961E-2,-7.257999852E-3,3.870199993E-2,4.080772349E-2
4.436795474E0,-3.949000034E-3,2.962999977E-3,4.806200042E-2,4.831490303E-2
4.441806628E0,7.120000198E-3,3.701000009E-3,4.071300104E-2,4.149626800E-2
4.446818010E0,3.930000123E-3,2.144000027E-3,4.053400084E-2,4.078047157E-2
4.451829384E0,-1.086900011E-2,-1.748000039E-3,4.989799857E-2,5.109795425E-2
4.456840769E0,-1.365000010E-2,-1.719000004E-2,3.771699965E-2,4.363932477E-2
4.461852139E0,-1.408000011E-2,-2.050900087E-2,3.989699855E-2,4.701740118E-2
4.466863524E0,-1.683099940E-2,-2.604999952E-2,3.489200026E-2,4.668336639E-2
4.471874918E0,-1.712100022E-2,-3.374199942E-2,3.466700017E-2,5.131717134E-2
4.476886303E0,-1.282399986E-2,-2.494999953E-2,3.206999972E-2,4.260800783E-2
4.481897593E0,5.229000002E-3,-2.331800014E-2,3.909600154E-2,4.582105310E-2
4.486909052E0,6.434999872E-3,-1.471200027E-2,3.895499930E-2,4.213483292E-2
4.491920362E0,1.449699979E-2,-2.028699964E-2,3.405300155E-2,4.220583221E-2
4.496931764E0,3.384200111E-2,-1.408699993E-2,2.442700043E-2,4.405000518E-2
4.501943148E0,3.873600066E-2,-5.576999858E-3,2.198800072E-2,4.488934005E-2
4.506954610E0,5.056799948E-2,2.910000039E-4,2.196500078E-2,5.513318884E-2
4.511965988E0,2.968900092E-2,-8.619999862E-4,3.144999966E-2,4.325832057E-2
4.516977372E0,2.801099978E-2,7.296000142E-3,9.825999849E-3,3.056792436E-2
4.521988685E0,1.934500039E-2,3.657999914E-3,4.937000107E-3,2.029738834E-2
4.527000068E0,2.482599951E-2,2.387000015E-3,1.202999987E-2,2.769023145E-2
4.532011452E0,1.151099987E-2,-1.045500021E-2,1.191500016E-2,1.959023676E-2
4.537022837E0,-1.077799965E-2,-2.291000076E-2,2.610800043E-2,3.636840796E-2
4.542034221E0,-2.329600044E-2,-4.200699925E-2,5.224899948E-2,7.097358360E-2
4.547045606E0,-3.547000140E-2,-4.439400136E-2,6.639900059E-2,8.739436844E-2
4.552056991E0,-3.808400035E-2,-5.604499951E-2,8.055300266E-2,1.052626206E-1
4.557068376E0,-3.822899982E-2,-5.572700128E-2,8.513099700E-2,1.086933381E-1
4.562079761E0,-3.826000169E-2,-5.541399866E-2,8.013100177E-2,1.046686028E-1
4.567091160E0,-4.515000060E-2,-5.259599909E-2,1.014320031E-1,1.228548449E-1
4.572102545E0,-4.464799911E-2,-4.741699994E-2,1.203259975E-1,1.368216407E-1
4.577113930E0,-5.552100018E-2,-4.917600006E-2,1.535339952E-1,1.705096716E-1
4.582125300E0,-5.209499970E-2,-3.457200155E-2,1.747869998E-1,1.856329917E-1
4.587136684E0,-6.267999858E-2,-3.422499821E-2,1.864459962E-1,1.996553085E-1
4.592148068E0,-6.387399882E-2,-5.033100024E-2,1.430840045E-1,1.645786428E-1
4.597159447E0,-4.898799956E-2,-5.226799846E-2,7.106500119E-2,1.009059074E-1
4.602170603E0,-3.007500060E-2,-4.266899824E-2,-8.070000447E-3,5.282304402E-2
4.607182217E0,-2.601799928E-2,-2.879000083E-2,-6.323599815E-2,7.419293697E-2
4.612193603E0,-4.101400077E-2,-2.486399934E-2,-6.576199830E-2,8.139414686E-2
4.617204988E0,-2.800199948E-2,-1.434400026E-2,-6.344699860E-2,7.081937552E-2
4.622216113E0,-8.678999729E-3,-2.061000094E-3,-4.670900106E-2,4.755316538E-2
4.627227495E0,7.573000155E-3,9.545999579E-3,-1.556000020E-2,1.976335107E-2
4.632238861E0,1.854999922E-2,2.288999967E-2,-2.744599991E-2,4.026583498E-2
4.637250246E0,4.084499925E-2,4.267700016E-2,-3.449900076E-2,6.840921985E-2
4.642261630E0,5.557399988E-2,5.710599944E-2,-3.194899857E-2,8.585046968E-2
4.647273029E0,6.996200234E-2,5.242199823E-2,-3.894599900E-2,9.570547794E-2
4.652284413E0,6.089799851E-2,4.794400185E-2,-3.401299939E-2,8.464087466E-2
4.657295798E0,5.691000074E-2,4.128500074E-2,-1.713800058E-2,7.236650147E-2
4.662307178E0,3.693399951E-2,3.018400073E-2,-7.499000058E-3,4.828487570E-2
4.667318563E0,2.466800064E-2,3.109199926E-2,4.488999955E-3,3.994213057E-2
4.672329958E0,1.757699996E-2,2.269699983E-2,2.362800017E-2,3.718046693E-2
4.677341343E0,6.190000102E-3,2.866899967E-2,3.076300025E-2,4.250399779E-2
4.682352713E0,1.151300035E-2,3.928900138E-2,3.072400019E-2,5.118729328E-2
4.687364098E0,1.227100007E-2,4.745399952E-2,5.459599942E-2,7.337017559E-2
4.692375501E0,2.247699909E-2,4.174600169E-2,5.694299936E-2,7.409756623E-2
4.697386885E0,2.329500020E-2,4.091000184E-2,6.645599753E-2,8.144129722E-2
4.702398269E0,1.261499990E-2,4.742199928E-2,7.353899628E-2,8.840796464E-2
4.707409559E0,9.445999749E-3,5.159699917E-2,6.863400340E-2,8.638346866E-2
4.712421019E0,-7.499999832E-3,5.338399857E-2,6.847000122E-2,8.714495033E-2
4.717432329E0,-1.235600002E-2,6.225899979E-2,5.872499943E-2,8.647241959E-2
4.722443711E0,-3.170999931E-3,6.627900153E-2,4.421899840E-2,7.973883059E-2
4.727455096E0,-1.289799996E-2,6.327299774E-2,4.166100174E-2,7.684705402E-2
4.732466476E0,-2.250199951E-2,6.743700057E-2,1.995100081E-2,7.383854997E-2
4.737477860E0,3.774699941E-2,8.777800202E-2,1.274400018E-2,9.639617806E-2
4.742489245E0,4.495599866E-2,9.356699884E-2,1.753200032E-2,1.052767597E-1
4.747500630E0,-3.192200139E-2,6.436000019E-2,1.738099940E-2,7.391429454E-2
4.752512015E0,-2.293300070E-2,4.764800146E-2,1.725500077E-2,5.562364260E-2
4.757523400E0,1.983999973E-3,2.674300037E-2,1.958700083E-2,3.320805514E-2
4.762534555E0,4.711600021E-2,1.888999948E-3,4.595300183E-2,6.584196362E-2
4.767545952E0,7.235299796E-2,-1.074600033E-2,7.955799997E-2,1.080736240E-1
4.772557568E0,7.378300279E-2,-2.783799917E-2,9.640800208E-2,1.245527541E-1
4.777568954E0,1.959799975E-2,-6.305400282E-2,8.680699766E-2,1.090657770E-1
4.782580338E0,-2.331900038E-2,-9.030500054E-2,6.512100250E-2,1.137519840E-1
4.787591722E0,-6.469400227E-2,-1.282750070E-1,4.812100157E-2,1.515104688E-1
4.792603107E0,-1.069120020E-1,-1.418689936E-1,1.905000024E-2,1.786613837E-1
4.797614261E0,-1.268420070E-1,-1.365240067E-1,-7.674000226E-3,1.865116335E-1
4.802625644E0,-1.230849996E-1,-1.127099991E-1,-1.044700015E-2,1.672202166E-1
4.807637028E0,-1.034189984E-1,-8.037299663E-2,-3.709299862E-2,1.361293443E-1
4.812648413E0,-8.481100202E-2,-6.533200294E-2,-3.015900031E-2,1.112238372E-1
4.817659797E0,-6.026899815E-2,-4.635399953E-2,-2.553699911E-2,8.020713019E-2
4.822671182E0,-5.089600012E-2,-3.981199861E-2,-8.892999962E-3,6.522640193E-2
4.827682797E0,-3.983499855E-2,-4.307100177E-2,2.455000021E-2,6.359749062E-2
4.832694194E0,-2.930499986E-2,-5.124400184E-2,4.367300123E-2,7.343065965E-2
4.837705348E0,-3.307399899E-2,-4.793699831E-2,7.475200295E-2,9.476131680E-2
4.842716726E0,-2.735099941E-2,-4.495299980E-2,6.036899984E-2,8.008286647E-2
4.847728110E0,-3.556599841E-2,-4.460399970E-2,5.074099824E-2,7.634858174E-2
4.852739495E0,-2.246399969E-2,-4.203899950E-2,1.958799921E-2,5.153249920E-2
4.857750895E0,-1.189399976E-2,-2.792499959E-2,-9.166000411E-3,3.170628323E-2
4.862762280E0,5.431000143E-3,-3.970900178E-2,-1.395499986E-2,4.243869232E-2
4.867773590E0,6.182999816E-3,-3.019700013E-2,-6.794000044E-3,3.156337657E-2
4.872785039E0,9.100000170E-5,-2.557099983E-2,5.127000157E-3,2.608007753E-2
4.877796349E0,-1.042000018E-3,-2.573899925E-2,1.225200016E-2,2.852531076E-2
4.882807809E0,-1.834000088E-2,-1.192600001E-2,9.757000022E-3,2.395379214E-2
4.887819205E0,-3.048500046E-2,1.403999981E-3,7.230000105E-3,3.136206898E-2
4.892830590E0,-4.230900109E-2,7.300000172E-3,1.664399914E-2,4.604741342E-2
4.897841978E0,-3.294900060E-2,8.311999962E-3,1.650799997E-2,3.777883067E-2
4.902853363E0,-3.567999974E-2,1.845600083E-2,4.408999812E-3,4.041194907E-2
4.907864691E0,-3.386300057E-2,2.126600035E-2,6.682999898E-3,4.054143641E-2
4.912876150E0,-4.147300124E-2,9.933999740E-3,2.330699936E-2,4.859948973E-2
4.917887460E0,-4.894699901E-2,-1.179000014E-3,3.753399849E-2,6.169278561E-2
4.922898843E0,-2.848099917E-2,6.618000101E-3,2.548900060E-2,3.878987485E-2
4.927910227E0,-1.095699985E-2,9.486000054E-3,2.065799944E-2,2.523475745E-2
4.932921612E0,3.761000000E-3,6.559999892E-4,3.978899866E-2,3.997173841E-2
4.937932997E0,-5.140000139E-4,1.376000000E-3,4.694499820E-2,4.696797237E-2
4.942944376E0,2.242000075E-3,-7.265000138E-3,4.693600163E-2,4.754781846E-2
4.947955761E0,1.206899993E-2,-1.101099979E-2,7.804299891E-2,7.973463836E-2
4.952967146E0,1.487500034E-2,-2.393399924E-2,1.043609977E-1,1.080986577E-1
4.957978536E0,-1.697099954E-2,-5.050199851E-2,1.114640012E-1,1.235422610E-1
4.962989691E0,-1.974800043E-2,-3.205399960E-2,8.742699772E-2,9.518887720E-2
4.968001304E0,3.807099909E-2,1.141900010E-2,6.826400012E-2,7.899220371E-2
4.973012445E0,8.726800233E-2,7.224900275E-2,4.199000075E-2,1.208254228E-1
4.978023828E0,1.000719965E-1,9.192900360E-2,2.291999944E-2,1.378066491E-1
4.983035226E0,7.987400144E-2,1.018529981E-1,-9.689999861E-4,1.294404431E-1
4.988046842E0,3.203500062E-2,6.761500239E-2,-4.166400060E-2,8.563830194E-2
4.993057989E0,-4.278500006E-2,-3.049999941E-4,-1.183300018E-1,1.258278133E-1
4.998069371E0,-8.800499886E-2,-4.979500175E-2,-1.376000047E-1,1.707576742E-1
5.003080746E0,-1.112719998E-1,-5.586899817E-2,-1.042449996E-1,1.623878777E-1
5.008092131E0,-1.083810031E-1,-1.770400070E-2,-7.568500191E-2,1.333720098E-1
5.013103515E0,-5.923099816E-2,3.307399899E-2,-4.465400055E-2,8.121687212E-2
5.018114914E0,9.073000401E-3,8.906400204E-2,-1.828400046E-2,9.137297449E-2
5.023126298E0,4.967699945E-2,1.499399990E-1,4.163800180E-2,1.633509436E-1
5.028137679E0,7.529199868E-2,1.829549968E-1,1.398659945E-1,2.422889026E-1
5.033149064E0,8.633200079E-2,1.888390034E-1,1.926359981E-1,2.832349049E-1
5.038160449E0,8.319699764E-2,1.707260013E-1,1.760019958E-1,2.589320576E-1
5.043171834E0,8.934699744E-2,1.271950006E-1,1.306910068E-1,2.030802634E-1
5.048183143E0,7.656499743E-2,6.153300032E-2,5.189500004E-2,1.110927540E-1
5.053194525E0,6.416899711E-2,2.803299949E-2,5.205599964E-2,8.725443455E-2
5.058205914E0,6.170399860E-2,9.708999656E-3,6.656199694E-2,9.128059790E-2
5.063217299E0,5.255400017E-2,1.759199984E-2,7.863999903E-2,9.620629314E-2
5.068228669E0,5.090399832E-2,2.072199993E-2,8.830399811E-2,1.040106456E-1
5.073240054E0,4.473099858E-2,2.156100050E-2,6.684300303E-2,8.326899802E-2
5.078251515E0,2.010600083E-2,1.316300035E-2,3.816099837E-2,4.509742392E-2
5.083262892E0,5.501000211E-3,-6.407999899E-3,3.817199916E-2,3.909507623E-2
5.088274200E0,-1.819700003E-2,-3.000500053E-2,4.660000093E-3,3.539980887E-2
5.093285568E0,-2.263900079E-2,-5.037700012E-2,-7.311999798E-3,5.571204393E-2
5.098296953E0,-2.248200029E-2,-7.702899724E-2,-7.294000126E-3,8.057362590E-2
5.103308319E0,-1.775100082E-2,-8.180499822E-2,-9.649000131E-3,8.426303441E-2
5.108319703E0,-1.538799983E-2,-9.097000211E-2,7.143000141E-3,9.253839352E-2
5.113331088E0,-1.281499956E-2,-9.504999965E-2,2.631900087E-2,9.945560042E-2
5.118342477E0,-1.012699958E-2,-7.783100009E-2,3.351999819E-2,8.534524576E-2
5.123353632E0,-9.657000192E-3,-6.327400357E-2,3.592000157E-2,7.339689157E-2
5.128365015E0,-1.608799957E-2,-4.194999859E-2,1.675800048E-2,4.795265052E-2
5.133376630E0,-2.449100092E-2,-1.877200045E-2,7.129999809E-3,3.167071240E-2
5.138388022E0,-1.634700038E-2,8.577999659E-3,2.292999998E-3,1.860280485E-2
5.143399176E0,-1.781000011E-2,3.283699974E-2,-4.943999927E-3,3.768166386E-2
5.148410563E0,-2.166800015E-2,3.778399900E-2,-2.614000114E-3,4.363445665E-2
5.153421948E0,-3.017999977E-2,2.394399978E-2,-5.071000196E-3,3.885694989E-2
5.158433333E0,-4.087400064E-2,8.129999973E-3,-2.753000008E-3,4.176553408E-2
5.163444736E0,-4.911899939E-2,-1.204400044E-2,2.110500075E-2,5.480105021E-2
5.168456121E0,-5.939700082E-2,-3.412299976E-2,4.255399853E-2,8.064257938E-2
5.173467506E0,-6.699900329E-2,-2.805900015E-2,6.876199692E-2,1.000219284E-1
5.178478886E0,-6.041000038E-2,-1.777400076E-2,8.540000021E-2,1.061058117E-1
5.183490271E0,-5.857700109E-2,-3.130900115E-2,9.725300223E-2,1.177695421E-1
5.188501656E0,-4.748399928E-2,-1.930399984E-2,7.800599933E-2,9.333975856E-2
5.193512950E0,-5.538300052E-2,-2.644499950E-2,6.114200130E-2,8.663116684E-2
5.198524410E0,-7.011500001E-2,-3.590900078E-2,3.468500078E-2,8.607333410E-2
5.203535728E0,-8.693999797E-2,-4.983000085E-2,1.539099962E-2,1.013828146E-1
5.208547111E0,-8.015800267E-2,-5.875299871E-2,2.005200088E-2,1.013868975E-1
5.213558496E0,-5.756200105E-2,-5.132500082E-2,-8.728000335E-3,7.761325701E-2
5.218569880E0,-3.110899962E-2,-3.026399948E-2,-1.566000050E-3,4.342961983E-2
5.223581265E0,-3.305000020E-3,-2.888000105E-3,8.640000015E-4,4.473261197E-3
5.228592636E0,1.669299975E-2,-1.876999973E-3,-1.446999959E-3,1.686040268E-2
5.233604021E0,1.985800080E-2,-7.876000367E-3,5.820999853E-3,2.214171666E-2
5.238615411E0,2.067600004E-2,-2.280200087E-2,1.070399955E-2,3.258840020E-2
5.243626796E0,2.148300037E-2,-2.084800042E-2,-1.073000021E-2,3.180080708E-2
5.248638165E0,5.034799874E-2,-9.557999671E-3,1.094799954E-2,5.240357840E-2
5.253649550E0,7.146699727E-2,6.209000014E-3,2.069599926E-2,7.466195661E-2
5.258660958E0,8.757100254E-2,2.155099995E-2,3.045400046E-2,9.518703814E-2
5.263672112E0,6.862699986E-2,2.946599945E-2,3.775800020E-2,8.368737546E-2
5.268683495E0,7.372400165E-2,1.868600026E-2,4.745500162E-2,8.964581531E-2
5.273694894E0,4.631499946E-2,1.294100005E-2,3.315800056E-2,5.841234166E-2
5.278706279E0,2.438800037E-2,-1.118099969E-2,1.403899956E-2,3.028007307E-2
5.283717664E0,-6.250000093E-3,-2.753300034E-2,2.047999995E-3,2.830764760E-2
5.288729043E0,-3.854500130E-2,-1.783099957E-2,-7.604999933E-3,4.314507729E-2
5.293740428E0,-5.152300000E-2,-1.304399967E-2,-5.210000090E-4,5.315107617E-2
5.298751822E0,-4.815499857E-2,-8.445999585E-3,1.799999969E-3,4.892319283E-2
5.303763207E0,-4.525300115E-2,-8.737999946E-3,-3.024999984E-3,4.618806536E-2
5.308774597E0,-4.972499982E-2,2.455000067E-3,1.608400047E-2,5.231919058E-2
5.313785982E0,-5.198099837E-2,1.512999996E-3,4.716800153E-2,7.020778966E-2
5.318797367E0,-4.734899849E-2,1.195500046E-2,6.629800051E-2,8.234242264E-2
5.323808757E0,-3.342900053E-2,3.361700103E-2,1.069729999E-1,1.170077926E-1
5.328820141E0,-1.229000045E-3,6.128799915E-2,1.357270032E-1,1.489279983E-1
5.333831525E0,2.305000089E-3,5.567900091E-2,1.525180042E-1,1.623798195E-1
5.338842834E0,-1.270299964E-2,6.398399919E-2,1.620829999E-1,1.747175355E-1
5.343854216E0,-3.178099915E-2,3.953300044E-2,1.692170054E-1,1.766558375E-1
5.348865601E0,-4.572299868E-2,1.117100008E-2,1.308729947E-1,1.390795621E-1
5.353877047E0,-3.835299984E-2,-2.805100009E-2,6.863199919E-2,8.347552046E-2
5.358888434E0,-2.205899917E-2,-3.589500114E-2,-3.131000092E-3,4.224752907E-2
5.363899723E0,-2.734100074E-2,-5.509399995E-2,-4.138400033E-2,7.413173838E-2
5.368911105E0,-3.728000075E-2,-6.679800153E-2,-6.767600030E-2,1.021362447E-1
5.373922490E0,-4.468899965E-2,-7.128600031E-2,-2.219199948E-2,8.701313333E-2
5.378933880E0,-4.951500148E-2,-7.583799958E-2,-6.500000018E-4,9.057350635E-2
5.383945264E0,-4.715399817E-2,-7.116299868E-2,8.921000175E-3,8.583272201E-2
5.388956420E0,-4.943799973E-2,-6.211199984E-2,1.369300019E-2,8.055752352E-2
5.393967827E0,-4.939299822E-2,-5.343800038E-2,-1.742899977E-2,7.482685474E-2
5.398979442E0,-6.566999853E-2,-3.353700042E-2,-2.466199920E-2,7.775277042E-2
5.403990603E0,-5.846299976E-2,-2.590099908E-2,-1.272400003E-2,6.519727196E-2
5.409001986E0,-3.534299880E-2,-7.011000067E-3,-1.270100009E-2,3.820467366E-2
5.414013370E0,-3.806999885E-3,1.350800041E-2,-1.021500025E-2,1.735815524E-2
5.419024764E0,1.005999977E-3,3.322400153E-2,1.622200012E-2,3.698647863E-2
5.424036149E0,1.476600021E-2,5.680200085E-2,9.192000143E-3,5.940534428E-2
5.429047543E0,3.496100008E-2,7.942400128E-2,3.810400143E-2,9.477530496E-2
5.434058928E0,3.813099861E-2,9.428799897E-2,4.071300104E-2,1.095524909E-1
5.439070313E0,4.581800103E-2,1.201390028E-1,5.290799960E-2,1.390392953E-1
5.444081683E0,6.272800267E-2,1.289090067E-1,4.599300027E-2,1.505579304E-1
5.449093068E0,7.003600150E-2,1.143319979E-1,4.866300151E-2,1.426356722E-1
5.454104464E0,6.822700053E-2,1.006169990E-1,3.456300125E-2,1.263855417E-1
5.459115772E0,3.899500147E-2,8.785799891E-2,1.798900031E-2,9.779183117E-2
5.464127155E0,1.099199988E-2,4.830000177E-2,-1.062500011E-2,5.066167052E-2
5.469138524E0,-1.602399908E-2,3.714000108E-3,-2.733400092E-2,3.190156657E-2
5.474149909E0,-3.520600125E-2,-3.182699904E-2,-2.732899971E-2,5.476581614E-2
5.479161356E0,-4.470400140E-2,-9.603799880E-2,1.398000051E-3,1.059419622E-1
5.484172666E0,-5.871500075E-2,-1.510580033E-1,4.208099842E-2,1.674418768E-1
5.489184049E0,-7.484100014E-2,-1.930699944E-1,8.514899760E-2,2.238918262E-1
5.494195447E0,-8.829999715E-2,-1.995380074E-1,1.066600010E-1,2.428758154E-1
5.499206832E0,-9.678299725E-2,-1.786690056E-1,1.329360008E-1,2.428199795E-1
5.504218222E0,-9.577599913E-2,-1.222810000E-1,1.376599967E-1,2.075474878E-1
5.509229606E0,-7.635399699E-2,-7.792700082E-2,1.304520071E-1,1.700596262E-1
5.514240991E0,-5.056999996E-2,-1.501999982E-2,1.160999984E-1,1.275230760E-1
5.519252352E0,-2.086300030E-2,4.973600060E-2,1.089700013E-1,1.215869883E-1
5.524263737E0,5.727999844E-3,1.001460031E-1,6.838499755E-2,1.214023880E-1
5.529274887E0,3.860199824E-2,1.206730008E-1,3.743999824E-2,1.321129852E-1
5.534286500E0,5.432200059E-2,1.101839989E-1,-2.935599908E-2,1.263058512E-1
5.539297887E0,6.263899803E-2,9.997799993E-2,-8.894400299E-2,1.477507368E-1
5.544309041E0,4.507799819E-2,6.941500306E-2,-1.294060051E-1,1.536111413E-1
5.549320424E0,2.094599977E-2,3.554999828E-2,-1.627250016E-1,1.678748445E-1
5.554331808E0,-2.340000065E-4,-3.938000184E-3,-1.553989947E-1,1.554490597E-1
5.559343193E0,-3.721100092E-2,-4.423199967E-2,-1.361770034E-1,1.479368265E-1
5.564354577E0,-5.943199992E-2,-7.151699811E-2,-1.026239991E-1,1.384865655E-1
5.569365967E0,-4.417400062E-2,-8.637099713E-2,-8.576100320E-2,1.294845209E-1
5.574377277E0,-4.825999960E-2,-7.537499815E-2,-6.648600101E-2,1.114935255E-1
5.579388645E0,-4.328500107E-2,-6.948199868E-2,-3.281399980E-2,8.819352607E-2
5.584400030E0,-3.177699819E-2,-6.389699876E-2,3.299999982E-3,7.143874344E-2
5.589411405E0,-2.078000084E-2,-4.473700002E-2,8.351000026E-3,5.002945939E-2
5.594422789E0,-1.023000013E-2,-1.919900067E-2,3.497900069E-2,4.119205043E-2
5.599434145E0,1.631600037E-2,-1.989400014E-2,3.534699976E-2,4.371948653E-2
5.604445530E0,3.068600036E-2,5.206999835E-3,5.248999968E-2,6.102412254E-2
5.609456891E0,4.721599817E-2,2.283699997E-2,6.247900054E-2,8.157514670E-2
5.614468276E0,4.741000012E-2,4.031100124E-2,8.201500028E-2,1.029521501E-1
5.619479421E0,4.802399874E-2,5.293099955E-2,8.477400243E-2,1.108811375E-1
5.624491034E0,5.133799836E-2,5.399600044E-2,9.947700053E-2,1.242852838E-1
5.629502421E0,5.026400089E-2,4.841699824E-2,7.346999645E-2,1.013336858E-1
5.634513801E0,6.108999997E-2,3.174600005E-2,5.703699961E-2,8.940366850E-2
5.639524955E0,4.393599927E-2,2.521000057E-2,4.293699935E-2,6.640408176E-2
5.644536328E0,5.056900159E-2,7.426000200E-3,1.927400008E-2,5.462468745E-2
5.649547712E0,3.375200182E-2,1.952999970E-3,5.142000038E-3,3.419725136E-2
5.654559328E0,3.603500128E-2,-5.623999983E-3,1.494100038E-2,3.941299513E-2
5.659570498E0,1.965400018E-2,-1.524200011E-2,5.557999946E-3,2.548508689E-2
5.664581880E0,1.297099981E-2,-8.320000023E-3,2.248799987E-2,2.726131645E-2
5.669593265E0,6.558999885E-3,-1.094799954E-2,2.743200026E-2,3.025547574E-2
5.674604655E0,-4.333999939E-3,-8.913000114E-3,1.560300030E-2,1.848455422E-2
5.679616039E0,-5.526999943E-3,3.099999958E-5,2.769600041E-2,2.824211621E-2
5.684627424E0,-8.952000178E-3,1.809000038E-3,2.542000078E-2,2.701087240E-2
5.689638808E0,-2.149000019E-2,5.921000149E-3,3.028500080E-2,3.760398416E-2
5.694650118E0,-1.973699965E-2,1.456000004E-2,2.558800019E-2,3.544416045E-2
5.699661568E0,-8.731000125E-3,1.830100082E-2,3.288500011E-2,3.863392585E-2
5.704672877E0,-7.375999819E-3,3.372000158E-2,4.258700088E-2,5.481876069E-2
5.709684284E0,-1.373999985E-3,4.171700031E-2,5.948200077E-2,7.266570309E-2
5.714695746E0,-9.400000272E-5,4.722699896E-2,7.637599856E-2,8.979805912E-2
5.719707055E0,-1.267400011E-2,6.191600114E-2,7.169999927E-2,9.557777656E-2
5.724718438E0,3.096000059E-3,7.159700245E-2,9.337899834E-2,1.177087648E-1
5.729729823E0,2.206000034E-3,7.872799784E-2,9.352099895E-2,1.222666812E-1
5.734740978E0,-3.313000081E-3,7.660099864E-2,8.886200190E-2,1.173675609E-1
5.739752361E0,-2.252100036E-2,5.615900084E-2,9.849199653E-2,1.155928294E-1
5.744763746E0,-5.511200055E-2,4.342100024E-2,9.128600359E-2,1.151340537E-1
5.749775135E0,-7.510200143E-2,2.654499933E-2,7.683800161E-2,1.106753184E-1
5.754786520E0,-8.526500314E-2,2.421700023E-2,5.279500037E-2,1.031692586E-1
5.759797905E0,-8.583600074E-2,1.513100043E-2,5.506800115E-2,1.030982587E-1
5.764809294E0,-8.164899796E-2,1.113899983E-2,4.537200183E-2,9.407047749E-2
5.769820679E0,-8.690699935E-2,4.931999836E-3,2.848700061E-2,9.158963021E-2
5.774832064E0,-8.271600306E-2,1.985700056E-2,3.076099977E-2,9.045704362E-2
5.779843462E0,-8.096799999E-2,1.813600026E-2,3.064600006E-2,8.845286229E-2
5.784854847E0,-7.463599741E-2,2.811999992E-2,2.576600015E-2,8.381618739E-2
5.789866232E0,-4.069799930E-2,1.916499995E-2,2.336700074E-2,5.069162745E-2
5.794877617E0,-2.183599956E-2,2.671400085E-2,1.624600030E-2,3.813635069E-2
5.799888925E0,-5.917000119E-3,2.017400041E-2,4.027400166E-2,4.543122706E-2
5.804900307E0,4.867999814E-3,1.620200090E-2,3.322000057E-2,3.727962839E-2
5.809911712E0,1.301100012E-2,1.235000044E-2,3.336299956E-2,3.788005246E-2
5.814923097E0,1.175600011E-2,3.920999821E-3,6.220399961E-2,6.342645620E-2
5.819934495E0,1.056300011E-2,2.766000107E-3,4.796599969E-2,4.919313829E-2
5.824945880E0,4.863000009E-3,-7.701999974E-3,4.087899998E-2,4.188152590E-2
5.829957283E0,8.607000113E-3,-8.689999580E-3,3.619600087E-2,3.820663585E-2
5.834968668E0,2.853799984E-2,-1.666799933E-2,3.155799955E-2,4.569624680E-2
5.839980053E0,1.315199956E-2,-2.910099924E-2,4.840200022E-2,5.798790283E-2
5.844991438E0,1.208299957E-2,-2.955700085E-2,4.371500015E-2,5.413516801E-2
5.850002823E0,1.572399959E-2,-3.702700138E-2,3.424299881E-2,5.282826859E-2
5.855013978E0,2.620399930E-2,-3.266900033E-2,2.719599940E-2,4.993531360E-2
5.860025346E0,1.070399955E-2,-2.154500037E-2,2.252200060E-2,3.295456203E-2
5.865036731E0,2.558999928E-3,-2.474400029E-2,1.783099957E-2,3.060651199E-2
5.870048346E0,-2.949000103E-3,-1.850000024E-2,2.269599959E-2,2.942881255E-2
5.875059502E0,8.440000238E-4,-2.179799974E-2,1.083000004E-2,2.435475374E-2
5.880071116E0,-1.405199990E-2,-2.951999940E-2,8.493999951E-3,3.377924068E-2
5.885082502E0,-1.238999981E-2,-3.940400109E-2,1.381000038E-3,4.132910062E-2
5.890093872E0,-1.544300001E-2,-4.202599823E-2,1.579900086E-2,4.747925026E-2
5.895105026E0,-2.318299934E-2,-3.761399910E-2,8.674999699E-3,4.502799137E-2
5.900116341E0,-3.308499977E-2,-3.791899979E-2,3.922000062E-3,5.047623044E-2
5.905127726E0,-4.500500113E-2,-3.833800182E-2,6.318999920E-3,5.945739878E-2
5.910139096E0,-2.867599949E-2,-4.331900179E-2,2.071600035E-2,5.592853953E-2
5.915150480E0,-2.215000056E-2,-4.589400068E-2,8.809999563E-3,5.171554810E-2
5.920161880E0,-8.853999898E-3,-3.910100088E-2,8.907999843E-3,4.106865039E-2
5.925173265E0,-7.530999836E-3,-4.881799966E-2,2.096400037E-2,5.366006300E-2
5.930184649E0,-8.388999850E-3,-3.025900014E-2,4.497800022E-2,5.485437915E-2
5.935196034E0,5.099999908E-5,-3.546399996E-2,4.029599950E-2,5.367928343E-2
5.940207419E0,1.291000005E-2,-2.885800041E-2,2.607600018E-2,4.098060608E-2
5.945218804E0,2.536799945E-2,-2.251300029E-2,1.907500066E-2,3.891305987E-2
5.950229959E0,3.510700166E-2,-2.429000102E-3,3.125699982E-2,4.706805334E-2
5.955241572E0,4.227399826E-2,7.776999846E-3,4.585399851E-2,6.285031293E-2
5.960252704E0,4.214999825E-2,6.014000159E-3,4.849800095E-2,6.453562308E-2
5.965264087E0,2.579599991E-2,-3.340000112E-4,5.587799847E-2,6.154588435E-2
5.970275471E0,5.342000164E-3,-6.548999809E-3,5.601900071E-2,5.665293289E-2
5.975286846E0,-5.224000197E-3,-1.030800026E-2,5.373999849E-2,5.496846810E-2
5.980298231E0,-1.997699961E-2,-2.329399996E-2,6.336700171E-2,7.040644753E-2
5.985309625E0,-4.805900156E-2,-3.350400180E-2,5.854000151E-2,8.281978957E-2
5.990321010E0,-6.116500124E-2,-3.191800043E-2,4.648400098E-2,8.319061531E-2
5.995332324E0,-5.763300136E-2,-2.788599953E-2,2.007899992E-2,6.709961291E-2
6.000343706E0,-7.276999950E-2,-3.076599911E-2,-1.584999962E-3,7.902234971E-2
6.005355101E0,-6.651099771E-2,-1.957600005E-2,-6.479999982E-3,6.963420851E-2
6.010366486E0,-6.968799978E-2,8.580000140E-4,-1.616599970E-2,7.154364419E-2
6.015377870E0,-5.889699981E-2,4.743000027E-3,-1.385900006E-2,6.069122274E-2
6.020389250E0,-3.217500076E-2,1.107800007E-2,-1.148299966E-2,3.591395328E-2
6.025400634E0,7.350000087E-4,2.676000074E-2,-1.838000026E-3,2.683311589E-2
6.030412096E0,1.193500031E-2,3.293700144E-2,1.499800012E-2,3.810813960E-2
6.035423425E0,1.363500021E-2,3.912699968E-2,3.900700063E-2,5.690677844E-2
6.040434807E0,2.244300023E-2,4.519499838E-2,4.388299957E-2,6.687296755E-2
6.045446208E0,4.030999914E-2,5.810299888E-2,3.445100039E-2,7.866209975E-2
6.050457593E0,4.603900015E-2,7.526300102E-2,3.461899981E-2,9.477649501E-2
6.055468977E0,5.629700050E-2,7.797300071E-2,3.241800144E-2,1.014892503E-1
6.060480138E0,5.233899876E-2,8.060300350E-2,3.977899998E-2,1.040124214E-1
6.065491521E0,6.013000011E-2,8.773899823E-2,4.716600105E-2,1.163545460E-1
6.070502905E0,4.906899855E-2,7.840400189E-2,5.212900043E-2,1.061714972E-1
6.075514275E0,3.841700032E-2,7.167000324E-2,5.944700167E-2,1.007293467E-1
6.080525660E0,3.279599920E-2,5.127000064E-2,6.433299929E-2,8.856029204E-2
6.085537044E0,4.259999841E-3,2.921500057E-2,4.997200146E-2,5.804192267E-2
6.090548434E0,-3.274799883E-2,-1.274000038E-3,6.181199849E-2,6.996268763E-2
6.095559818E0,-4.537900165E-2,-5.117999855E-3,6.403400004E-2,7.864986252E-2
6.100571208E0,-5.076299980E-2,-2.728600055E-2,7.580400258E-2,9.522423422E-2
6.105582518E0,-5.598499998E-2,-4.870099947E-2,1.282220036E-1,1.481451645E-1
6.110593904E0,-6.345900148E-2,-6.957600266E-2,1.710450053E-1,1.952543440E-1
6.115605366E0,-7.542800158E-2,-9.942899644E-2,1.659740061E-1,2.076604908E-1
6.120616676E0,-7.090800256E-2,-1.078739986E-1,1.130729988E-1,1.716107440E-1
6.125628058E0,-7.149600238E-2,-1.328890026E-1,4.583900049E-2,1.577097946E-1
6.130639214E0,-8.859200031E-2,-1.319379956E-1,2.522999886E-3,1.589419476E-1
6.135650593E0,-8.933699876E-2,-1.199510023E-1,4.724999890E-3,1.496384574E-1
6.140661977E0,-8.349999785E-2,-1.064260006E-1,9.390000254E-3,1.355983604E-1
6.145673366E0,-4.577599838E-2,-7.058099657E-2,-1.309999934E-4,8.412571703E-2
6.150684751E0,-9.472999722E-3,-3.624099866E-2,6.800000119E-5,3.745867498E-2
6.155696366E0,4.647000227E-3,-3.309000051E-3,-1.161099970E-2,1.293674637E-2
6.160707542E0,2.047500014E-2,1.914400049E-2,-3.996099904E-2,4.881188206E-2
6.165718925E0,2.429099940E-2,3.157399967E-2,-3.718800098E-2,5.449694967E-2
6.170730234E0,4.201300070E-2,3.904600069E-2,-4.633300006E-2,7.373214558E-2
6.175741693E0,6.168000028E-2,6.504900008E-2,-3.388499841E-2,9.583312561E-2
6.180753003E0,1.018489972E-1,6.726499647E-2,-6.990000140E-3,1.222565257E-1
6.185764357E0,-1.226300001E-2,5.775000155E-2,1.416250020E-1,1.534375607E-1
6.190775819E0,-4.242999852E-2,2.484899946E-2,7.724300027E-2,9.156559746E-2
6.195787118E0,5.133799836E-2,4.395699874E-2,3.561000107E-3,6.767930655E-2
6.200798501E0,7.317300141E-2,6.273700297E-2,1.365599968E-2,9.734837443E-2
6.205809886E0,7.406400144E-2,7.449600101E-2,-7.406999823E-3,1.053090410E-1
6.210821270E0,5.457400158E-2,7.712700218E-2,-2.858100086E-2,9.871053502E-2
6.215832669E0,3.842699900E-2,7.323099673E-2,-4.267700016E-2,9.306309407E-2
6.220844054E0,2.311499976E-2,7.468699664E-2,-4.489599913E-2,9.015598382E-2
6.225855435E0,2.234500088E-2,4.650599882E-2,-8.883999661E-3,5.235487026E-2
6.230866820E0,7.825000212E-3,3.348200023E-2,2.705200016E-2,4.375026492E-2
6.235877975E0,3.269999987E-3,1.645400003E-2,5.096900091E-2,5.365879304E-2
6.240889352E0,-1.265900023E-2,-2.273000078E-3,4.370399937E-2,4.555717701E-2
6.245900737E0,-3.259199858E-2,-4.236999899E-3,6.269399822E-2,7.078649555E-2
6.250912122E0,-3.790900111E-2,-2.239399962E-2,5.292800069E-2,6.884734447E-2
6.255923520E0,-3.852799907E-2,-1.685599983E-2,3.600100055E-2,5.535886093E-2
6.260934905E0,-3.228199854E-2,-2.554100007E-2,1.431099977E-2,4.358067036E-2
6.265946313E0,-2.872700058E-2,-2.009999938E-2,1.179699972E-2,3.699215782E-2
6.270957698E0,-2.308800071E-2,-2.417399921E-2,6.916999817E-3,3.413624029E-2
6.275969008E0,-2.239000052E-2,-2.581400052E-2,2.050000010E-3,3.423269265E-2
6.280980400E0,-7.849000394E-3,-6.634999998E-3,-3.600000055E-4,1.028395022E-2
6.285991862E0,-1.002500020E-2,2.624999965E-3,9.200000204E-3,1.385753433E-2
6.291003152E0,-5.859999801E-4,-6.099999882E-5,9.219000116E-3,9.237807105E-3
6.296014534E0,-5.475999787E-3,4.288999829E-3,9.239999577E-3,1.156545223E-2
6.301025929E0,-9.019999998E-4,6.198999938E-3,2.123700082E-2,2.214162162E-2
6.306037314E0,8.127000183E-3,1.495200023E-2,2.369800024E-2,2.917542901E-2
6.311048693E0,9.889000095E-3,4.701999947E-3,3.334499896E-2,3.509686712E-2
6.316060078E0,-4.674999975E-3,-2.974000061E-3,4.773399979E-2,4.805450069E-2
6.321071229E0,-9.566999972E-3,-1.041700039E-2,5.253599957E-2,5.440654957E-2
6.326082842E0,-2.354799956E-2,-2.234300040E-2,5.010899901E-2,5.970452020E-2
6.331093998E0,-3.015900031E-2,-3.398000076E-2,4.526500031E-2,6.413365735E-2
6.336105386E0,-2.971100062E-2,-2.902700007E-2,2.847000025E-2,5.035723588E-2
6.341117001E0,-3.161599860E-2,-2.886899933E-2,2.124400064E-2,4.779433076E-2
6.346128157E0,-2.417699993E-2,-2.877900004E-2,2.121799998E-2,4.316203994E-2
6.351139539E0,-1.227200031E-2,-2.173900045E-2,1.404900011E-2,2.864542785E-2
6.356150924E0,-2.161099948E-2,-2.656799927E-2,1.642199978E-2,3.798125802E-2
6.361162239E0,-2.131300047E-2,-2.434499934E-2,2.118499950E-2,3.867463233E-2
6.366173621E0,-7.077999879E-3,-1.285600010E-2,4.459000193E-3,1.533810626E-2
6.371185006E0,-2.499999944E-3,-4.029000178E-3,2.103999956E-3,5.187451973E-3
6.376196420E0,-1.428200025E-2,-2.375999931E-3,-9.855999611E-3,1.751461205E-2
6.381207804E0,-7.032999769E-3,-2.832999919E-3,9.293000214E-3,1.199369948E-2
6.386219189E0,-2.214000095E-3,1.309200004E-2,4.526999779E-3,1.402839935E-2
6.391230573E0,-9.077000432E-3,2.408999950E-2,9.310999885E-3,2.737544030E-2
6.396241958E0,-1.794200018E-2,1.168399956E-2,3.079699911E-2,3.750848398E-2
6.401253343E0,-2.193799987E-2,9.185999632E-3,4.030200094E-2,4.679647110E-2
6.406264728E0,-2.804400027E-2,1.385200024E-2,5.217500031E-2,6.083234764E-2
6.411276113E0,-3.625399992E-2,1.374599990E-2,6.641499698E-2,7.690420565E-2
6.416287493E0,-5.352599919E-2,2.083000029E-3,5.906299874E-2,7.973587209E-2
6.421298647E0,-5.880700052E-2,-1.851999946E-2,5.408599973E-2,8.201554155E-2
6.426310025E0,-3.859300166E-2,-2.697099932E-2,4.439099878E-2,6.471024149E-2
6.431321641E0,-2.374899946E-2,-2.124200016E-2,4.193000123E-2,5.266272448E-2
6.436333027E0,-7.050000131E-3,-8.779999800E-3,5.388500169E-2,5.504892647E-2
6.441344181E0,2.055000048E-3,-1.300400030E-2,4.912500083E-2,5.085855637E-2
6.446355564E0,-1.221199986E-2,-5.557000171E-3,4.671699926E-2,4.860546483E-2
6.451366863E0,-1.211899985E-2,-5.257999990E-3,2.516400069E-2,2.842083130E-2
6.456378323E0,-7.296000142E-3,8.946999907E-3,1.320100017E-2,1.753701317E-2
6.461389633E0,-7.218000013E-3,6.593999919E-3,6.014000159E-3,1.147817743E-2
6.466401020E0,2.155999886E-3,1.592000015E-2,1.082499977E-2,1.937202520E-2
6.471412405E0,6.577599794E-2,5.267100036E-2,-4.937410057E-1,5.008801222E-1
6.476423789E0,3.219490051E-1,1.872639954E-1,-9.807329774E-1,1.049073943E0
6.481435164E0,2.332590073E-1,2.052080035E-1,-3.269949853E-1,4.510496754E-1
6.486446320E0,-1.300780028E-1,8.447399735E-2,1.579879969E-1,2.213963645E-1
6.491457703E0,-2.393659949E-1,-5.315000191E-3,2.502390146E-1,3.463291689E-1
6.496469092E0,-1.443050057E-1,-2.579499967E-2,2.088350058E-1,2.551497135E-1
6.501480477E0,-3.453100100E-2,-2.770400047E-2,1.343369931E-1,1.414437322E-1
6.506491847E0,6.583000068E-3,-2.758100070E-2,1.437480003E-1,1.465180367E-1
6.511503232E0,2.483000048E-3,-3.244699910E-2,1.914300025E-1,1.941762572E-1
6.516514621E0,-1.093000057E-3,-3.520099819E-2,2.318969965E-1,2.345560102E-1
6.521526006E0,6.550800055E-2,-2.663199976E-2,2.174829990E-1,2.286906565E-1
6.526537315E0,2.376800030E-2,-2.325199917E-2,1.622519940E-1,1.656239200E-1
6.531548698E0,-2.304299921E-2,-3.870400041E-2,9.486799687E-2,1.050186473E-1
6.536560068E0,-2.595799975E-2,-3.271900117E-2,2.023899928E-2,4.641085951E-2
6.541571453E0,-4.692399874E-2,-3.123899922E-2,-7.123299688E-2,9.083984024E-2
6.546582838E0,-4.594700038E-2,-2.245200053E-2,-1.196679994E-1,1.301370403E-1
6.551594222E0,-2.850200050E-2,-1.114699990E-2,-1.393620074E-1,1.426828257E-1
6.556605378E0,-2.317900024E-2,-4.430999979E-3,-1.398990005E-1,1.418754037E-1
6.561616976E0,-1.809499972E-2,-2.082099952E-2,-1.021410003E-1,1.058004111E-1
6.566628363E0,-2.951099910E-2,-5.065299943E-2,5.283400044E-2,7.891803990E-2
6.571639503E0,-8.970399946E-2,-9.163100272E-2,3.081839979E-1,3.337969813E-1
6.576651116E0,-1.722729951E-1,-1.327659935E-1,5.562419891E-1,5.972519940E-1
6.581662267E0,-2.119909972E-1,-1.562699974E-1,7.445340157E-1,7.897413472E-1
6.586673650E0,-2.637700140E-1,-1.724240035E-1,8.634870052E-1,9.191922897E-1
6.591685010E0,-3.741660118E-1,-1.818400025E-1,8.699359894E-1,9.642896953E-1
6.596696395E0,-7.119560242E-1,-2.867839932E-1,6.174089909E-1,9.850483750E-1
6.601707780E0,-3.897449970E-1,-2.438739985E-1,4.763999954E-2,4.622177619E-1
6.606719150E0,1.521770060E-1,-8.649499714E-2,-3.386679888E-1,3.812285828E-1
6.611730535E0,2.727540135E-1,1.579299942E-2,-3.464249969E-1,4.411966106E-1
6.616741845E0,4.222159982E-1,6.965500116E-2,-3.298060000E-1,5.402686054E-1
6.621753207E0,5.316669941E-1,1.281410009E-1,-2.483509928E-1,6.006397625E-1
6.626764592E0,4.572669864E-1,1.332069933E-1,-1.385869980E-1,4.960277774E-1
6.631775977E0,3.508520126E-1,1.373450011E-1,-1.011449993E-1,3.901167709E-1
