"Time (s)","Linear Acceleration x (m/s^2)","Linear Acceleration y (m/s^2)","Linear Acceleration z (m/s^2)","Absolute acceleration (m/s^2)"
4.326722000E-2,2.000473976E0,-2.534200065E-2,1.788969934E-1,2.008617057E0
4.827852600E-2,1.959606051E0,-6.580500305E-2,1.472090036E-1,1.966229047E0
5.328992500E-2,1.854792953E0,-8.657400310E-2,8.750600368E-2,1.858873114E0
5.830130900E-2,1.815525055E0,-6.475500017E-2,3.291099891E-2,1.816977592E0
6.331246900E-2,1.688917041E0,-3.643099964E-2,-1.879899949E-2,1.689414511E0
6.832377500E-2,1.589190006E0,-2.277199924E-2,-2.699900046E-2,1.589582456E0
7.333515900E-2,1.476405978E0,-7.899999764E-5,-3.478499874E-2,1.476815701E0
7.834631500E-2,1.436939955E0,2.904699929E-2,-2.084499970E-2,1.437384665E0
8.335760600E-2,1.391742945E0,4.550600052E-2,1.958700083E-2,1.392624454E0
8.836876200E-2,1.343036056E0,3.792700171E-2,6.264200062E-2,1.345030975E0
9.338012500E-2,1.311635971E0,3.940400109E-2,8.188299835E-2,1.314779990E0
9.839143500E-2,1.278280020E0,2.900600061E-2,7.020299882E-2,1.280534895E0
1.034027990E-1,1.252395988E0,4.914999940E-3,2.288999967E-2,1.252614793E0
1.084139550E-1,1.171087980E0,-2.527399920E-2,-2.164199948E-2,1.171560587E0
1.134253170E-1,1.087147951E0,-3.136200085E-2,-1.089899987E-2,1.087654831E0
1.184366270E-1,1.000717998E0,-5.157300085E-2,8.143699914E-2,1.005349825E0
1.234477670E-1,9.280210137E-1,-4.133599997E-2,1.283729970E-1,9.377693177E-1
1.284591490E-1,8.664180040E-1,-1.304300036E-2,1.657180041E-1,8.822203435E-1
1.334704500E-1,8.529220223E-1,-3.650499880E-2,9.081199765E-2,8.585193126E-1
1.384818330E-1,8.790779710E-1,-4.724700004E-2,-7.859000005E-3,8.803818047E-1
1.434929890E-1,8.832600117E-1,-5.477600172E-2,-1.254799962E-1,8.938086417E-1
1.485043710E-1,9.035249949E-1,-8.010800183E-2,-2.189050019E-1,9.331099121E-1
1.535156810E-1,9.717630148E-1,-6.720499694E-2,-2.524519861E-1,1.006266304E0
1.585268200E-1,1.051763058E0,-5.953500047E-2,-2.213770002E-1,1.076456094E0
1.635382020E-1,1.104071021E0,-4.556500167E-2,-1.520259976E-1,1.115419604E0
1.685495120E-1,1.159834981E0,-4.882400110E-2,-6.825400144E-2,1.162866964E0
1.735606750E-1,1.174870968E0,-4.341800138E-2,3.945900127E-2,1.176334955E0
1.785719810E-1,1.124580026E0,-4.353800043E-2,1.208840013E-1,1.131896079E0
1.835833650E-1,1.061900020E0,-2.330300026E-2,1.807190031E-1,1.077420085E0
1.885945210E-1,9.637129903E-1,-4.103500023E-2,1.545449942E-1,9.768883018E-1
1.936059040E-1,8.729469776E-1,-4.411600158E-2,7.822600007E-2,8.775545307E-1
1.986172130E-1,8.197939992E-1,-2.115399949E-2,1.149199996E-2,8.201474007E-1
2.036285960E-1,7.938740253E-1,1.075599995E-2,-2.655700035E-2,7.943909201E-1
2.086397520E-1,7.690610290E-1,4.182099923E-2,7.102000061E-3,7.702300310E-1
2.136510580E-1,7.360630035E-1,7.431700081E-2,3.108300082E-2,7.404579088E-1
2.186622140E-1,6.859729886E-1,7.315299660E-2,7.897400111E-2,6.943681983E-1
2.236735960E-1,6.402789950E-1,7.182899863E-2,9.811799973E-2,6.517236672E-1
2.286849810E-1,6.312140226E-1,4.966599867E-2,5.995000154E-2,6.359967425E-1
2.336963650E-1,5.487549901E-1,1.219400018E-2,1.474200003E-2,5.490883894E-1
2.387074540E-1,4.599829912E-1,-1.013300009E-2,5.454999860E-3,4.601269248E-1
2.437188370E-1,3.738059998E-1,-1.569399983E-2,2.959799953E-2,3.753042348E-1
2.487301420E-1,3.803380132E-1,-3.515300155E-2,4.665800184E-2,3.847982678E-1
2.537412960E-1,3.307670057E-1,-3.336500004E-2,8.996199816E-2,3.444026661E-1
2.587526780E-1,3.406459987E-1,-2.036499977E-2,1.331810057E-1,3.663217301E-1
2.637639690E-1,3.873139918E-1,-1.227500010E-2,1.190200001E-1,4.053745975E-1
2.687753520E-1,4.255410135E-1,-1.802000031E-2,4.995699972E-2,4.288421346E-1
2.737865110E-1,4.740790129E-1,-1.608199999E-2,-1.177299954E-2,4.744977815E-1
2.787978940E-1,5.371819735E-1,5.059000105E-3,-8.056099713E-2,5.432127947E-1
2.838092090E-1,5.772259831E-1,2.603100054E-2,-7.988700271E-2,5.833089934E-1
2.888203630E-1,6.157220006E-1,5.373800173E-2,-7.917200029E-2,6.231127992E-1
2.938317450E-1,6.366260052E-1,9.480900317E-2,-5.937499925E-2,6.463797708E-1
2.988430550E-1,5.990120173E-1,1.185130030E-1,-1.336800028E-2,6.107695409E-1
3.038542090E-1,5.235159993E-1,1.041819975E-1,3.256300092E-2,5.347740076E-1
3.088655910E-1,4.042919874E-1,9.234599769E-2,5.438699946E-2,4.182555918E-1
3.138769010E-1,2.962059975E-1,5.709400028E-2,1.071899980E-1,3.201365544E-1
3.188882990E-1,2.102199942E-1,3.855000064E-2,1.574410051E-1,2.654547393E-1
3.238994550E-1,1.595329940E-1,2.687799931E-2,2.051589936E-1,2.612726845E-1
3.289108320E-1,1.404000074E-1,8.227000013E-3,2.074169964E-1,2.506025857E-1
3.339221420E-1,2.049980015E-1,-4.459699988E-2,1.262969971E-1,2.448754877E-1
3.389332960E-1,1.117589995E-1,-5.834300071E-2,7.147400081E-2,1.449224361E-1
3.439446780E-1,-7.599999662E-5,-7.129400223E-2,4.531100020E-2,8.447441784E-2
3.489559880E-1,-9.986899793E-2,-8.380100131E-2,5.497099832E-2,1.414858128E-1
3.539671420E-1,-9.283000231E-2,-8.948200196E-2,1.364150047E-1,1.877058644E-1
3.589785250E-1,-3.725500032E-2,-9.082999825E-2,1.915690005E-1,2.152596237E-1
3.639898190E-1,2.210799977E-2,-9.130699933E-2,-6.748000160E-3,9.418740513E-2
3.690012020E-1,9.467600286E-2,-1.015250012E-1,-3.386909962E-1,3.660361489E-1
3.740123580E-1,1.423750073E-1,-1.100070029E-1,-5.147979856E-1,5.453339796E-1
3.790236730E-1,1.952850074E-1,-1.209599972E-1,-3.749369979E-1,4.397104813E-1
3.840350580E-1,2.452290058E-1,-1.376899928E-1,-8.429100364E-2,2.935996810E-1
3.890462140E-1,3.197920024E-1,-1.274929941E-1,1.895930022E-1,3.930227663E-1
3.940575050E-1,4.074409902E-1,-8.820900321E-2,3.677049875E-1,5.558740384E-1
3.990688890E-1,4.739210010E-1,-3.811400011E-2,2.730070055E-1,5.482578017E-1
4.040800450E-1,4.639689922E-1,1.631399989E-2,-8.377999999E-3,4.643313076E-1
4.090914380E-1,3.729409873E-1,5.389200151E-2,-2.229200006E-1,4.378157769E-1
4.141027470E-1,2.661589980E-1,8.602199703E-2,-2.822189927E-1,3.973511747E-1
4.191139010E-1,1.674160063E-1,8.646299690E-2,-1.862650067E-1,2.649502250E-1
4.241252890E-1,8.844400197E-2,6.959000230E-2,-9.228999726E-3,1.129171570E-1
4.291366740E-1,3.583699837E-2,5.682799965E-2,1.364420056E-1,1.520859392E-1
4.341477530E-1,1.711999997E-3,3.224800155E-2,1.958760023E-1,1.985202076E-1
4.391591100E-1,-7.520000217E-4,3.744000103E-3,1.501069963E-1,1.501555639E-1
4.441704180E-1,3.186599910E-2,-2.097900026E-2,5.433699861E-2,6.639329611E-2
4.491818110E-1,7.962000370E-2,-4.176700115E-2,-3.392599896E-2,9.609787084E-2
4.541929670E-1,1.117080003E-1,-3.792300075E-2,-8.371300250E-2,1.446537179E-1
4.592043500E-1,1.357119977E-1,-3.602699935E-2,-9.030199796E-2,1.669435289E-1
4.642154530E-1,1.451510042E-1,-1.761299931E-2,-7.058499753E-2,1.623615522E-1
4.692268360E-1,1.381440014E-1,-1.127099991E-2,-3.415200114E-2,1.427485893E-1
4.742382200E-1,1.361950040E-1,4.071000032E-3,4.575999919E-3,1.363326517E-1
4.792495300E-1,1.505790055E-1,2.584899962E-2,3.844600171E-2,1.575446055E-1
4.842609120E-1,1.390960068E-1,3.538100049E-2,5.310099944E-2,1.530334291E-1
4.892720680E-1,1.303700060E-1,5.151199922E-2,6.286499649E-2,1.536288785E-1
4.942833740E-1,1.336009949E-1,6.478899717E-2,7.735099643E-2,1.674216732E-1
4.992947590E-1,1.206389964E-1,6.826700270E-2,1.109099984E-1,1.775251499E-1
5.043059150E-1,9.881699830E-2,5.073200166E-2,9.902700037E-2,1.488115652E-1
5.093172200E-1,8.021199703E-2,3.824599832E-2,9.908699989E-2,1.330975372E-1
5.143286200E-1,8.074499667E-2,2.385099977E-2,7.289499789E-2,1.113656383E-1
5.193397760E-1,7.652299851E-2,1.441400032E-2,5.629700050E-2,9.608790232E-2
5.243511570E-1,5.383700132E-2,-4.315999802E-3,8.036799729E-2,9.683008600E-2
5.293624670E-1,1.562099997E-2,-3.218000010E-2,1.044130027E-1,1.103704815E-1
5.343736210E-1,-2.611099929E-2,-3.162899986E-2,1.020009965E-1,1.099380789E-1
5.393850090E-1,-5.503299832E-2,-3.829099983E-2,1.043080017E-1,1.239959305E-1
5.443963180E-1,-6.218700111E-2,-2.183800004E-2,1.088770032E-1,1.272726333E-1
5.494074870E-1,-4.832600057E-2,-1.750900038E-2,8.713799715E-2,1.011681668E-1
5.544188700E-1,-4.669199884E-2,-2.959099971E-2,6.546700001E-2,8.568370971E-2
5.594301880E-1,-2.208499983E-2,-2.044999972E-2,5.817800015E-2,6.550289618E-2
5.644413420E-1,1.079200022E-2,-1.167500019E-2,6.528899819E-2,6.719692093E-2
5.694527250E-1,4.697300121E-2,-1.039199997E-2,9.639199823E-2,1.077305613E-1
5.744640500E-1,7.235900313E-2,-2.560600080E-2,9.651099890E-2,1.233120656E-1
5.794754320E-1,5.727300048E-2,-4.973300174E-2,9.671100229E-2,1.229088524E-1
5.844865640E-1,2.613800019E-2,-6.620100141E-2,7.299800217E-2,1.019533029E-1
5.894978700E-1,-1.592699997E-2,-7.752399892E-2,7.079699636E-2,1.061878262E-1
5.945090450E-1,-4.067799821E-2,-8.622899652E-2,9.491000324E-2,1.345289861E-1
5.995204270E-1,-5.322200060E-2,-7.368700206E-2,7.828400284E-2,1.199614135E-1
6.045318120E-1,-6.077799946E-2,-4.977300018E-2,9.266699851E-2,1.214845232E-1
6.095431070E-1,-5.416199937E-2,-1.245300006E-2,9.735699743E-2,1.121025617E-1
6.145542600E-1,-4.539899901E-2,1.702699997E-2,7.325699925E-2,8.784973408E-2
6.195656430E-1,-2.980699949E-2,3.654500097E-2,7.066299766E-2,8.495442045E-2
6.245769530E-1,2.023500018E-2,6.506399810E-2,5.613299832E-2,8.828189272E-2
6.295883350E-1,8.506900072E-2,9.279900044E-2,5.121099949E-2,1.359078947E-1
6.345994910E-1,1.362140030E-1,1.081129983E-1,4.396500066E-2,1.793755733E-1
6.396108120E-1,1.509730071E-1,1.089729965E-1,5.828199908E-2,1.951019073E-1
6.446221970E-1,1.465940028E-1,9.813799709E-2,3.914399818E-2,1.807017452E-1
6.496333520E-1,8.656399697E-2,6.928499788E-2,-6.289000157E-3,1.110553377E-1
6.546447350E-1,2.956999931E-3,2.755899914E-2,-3.868999891E-3,2.798591507E-2
6.596560450E-1,5.680200085E-2,4.013999924E-2,1.421280056E-1,1.582341835E-1
6.646671940E-1,4.868000001E-2,2.868399955E-2,2.713429928E-1,2.771633705E-1
6.696785760E-1,2.908200026E-2,1.483699959E-2,3.311280012E-1,3.327336059E-1
6.746898670E-1,-2.021699958E-2,-2.644699998E-2,2.904770076E-1,2.923782872E-1
6.797010210E-1,-7.979899645E-2,-6.588300318E-2,1.063759997E-1,1.484058734E-1
6.847123980E-1,-1.074350029E-1,-8.455900103E-2,-9.670799971E-2,1.674662405E-1
6.897237080E-1,-1.272429973E-1,-1.088040024E-1,-2.230450064E-1,2.788873718E-1
6.947350960E-1,-1.300940067E-1,-1.178869978E-1,-2.751030028E-1,3.263486739E-1
6.997462520E-1,-1.374260038E-1,-1.318639964E-1,-1.596930027E-1,2.485475310E-1
7.047575570E-1,-1.422200054E-1,-1.442259997E-1,1.063400041E-2,2.028318291E-1
7.097689190E-1,-1.261450052E-1,-1.411940008E-1,1.664689928E-1,2.521115503E-1
7.147800750E-1,-1.105649993E-1,-1.297689974E-1,2.336380035E-1,2.892253938E-1
7.197913810E-1,-7.688699663E-2,-1.073520035E-1,2.074269950E-1,2.458902624E-1
7.248027640E-1,-3.965499997E-2,-8.053199947E-2,1.142550036E-1,1.453001301E-1
7.298139200E-1,4.056499898E-2,-1.899899915E-2,2.589399926E-2,5.173954299E-2
7.348252260E-1,1.414490044E-1,1.132650003E-1,-3.398099914E-2,1.843678102E-1
7.398366060E-1,1.465169936E-1,1.699559987E-1,-6.293199956E-2,2.330508689E-1
7.448477620E-1,2.582879961E-1,1.743379980E-1,-1.130940020E-1,3.315066813E-1
7.498591450E-1,4.110000134E-1,1.301790029E-1,-9.084899724E-2,4.405917885E-1
7.548704400E-1,4.339790046E-1,8.511800319E-2,-3.483000025E-2,4.436169292E-1
7.598815930E-1,2.687709928E-1,9.017799795E-2,4.225799814E-2,2.866280800E-1
7.648929900E-1,1.068760008E-1,7.423900068E-2,5.433600023E-2,1.410188274E-1
7.699043000E-1,-3.347000107E-3,5.436100066E-2,3.994999919E-3,5.461026301E-2
7.749156680E-1,-7.293300331E-2,3.526699916E-2,-2.250399999E-2,8.407980861E-2
7.799268240E-1,-1.081250012E-1,2.142800018E-2,-4.183600098E-2,1.179000681E-1
7.849381440E-1,-1.309980005E-1,8.849999867E-4,-2.762899920E-2,1.338828628E-1
7.899495290E-1,-1.605899930E-1,-5.481999833E-3,8.049000055E-3,1.608850042E-1
7.949606840E-1,-1.825899929E-1,-5.369099975E-2,3.908300027E-2,1.942918163E-1
7.999719900E-1,-1.972170025E-1,-9.592500329E-2,4.873200133E-2,2.246574287E-1
8.049833750E-1,-2.323240042E-1,-1.415410042E-1,4.892399907E-2,2.764088574E-1
8.099945310E-1,-2.360090017E-1,-1.578299999E-1,3.960900009E-2,2.866695496E-1
8.150058170E-1,-2.556230128E-1,-1.616660058E-1,3.982999828E-3,3.024812166E-1
8.200172020E-1,-2.070869952E-1,-1.394859999E-1,-3.636499867E-2,2.523168264E-1
8.250283580E-1,-9.506499767E-2,-1.152890027E-1,-8.365999907E-2,1.712539149E-1
8.300397400E-1,1.270789951E-1,-1.075949967E-1,-1.303460002E-1,2.114611881E-1
8.350511250E-1,2.565000057E-1,-8.645900339E-2,-5.477999896E-2,2.761670880E-1
8.400621900E-1,2.568199933E-1,-5.724700168E-2,3.971299902E-2,2.661030823E-1
8.450735730E-1,1.926349998E-1,-8.414999582E-3,8.348300308E-2,2.101153663E-1
8.500848810E-1,1.054449975E-1,2.684899978E-2,9.803599864E-2,1.464601425E-1
8.550962600E-1,5.625199899E-2,5.388399959E-2,8.354800195E-2,1.142280238E-1
8.601074160E-1,2.495699935E-2,7.286400348E-2,6.883899868E-2,1.032996736E-1
8.651187980E-1,1.560799964E-2,7.695599645E-2,9.470000118E-2,1.230200198E-1
8.701301320E-1,1.552799996E-2,8.523699641E-2,1.205030009E-1,1.484164330E-1
8.751412860E-1,1.965700090E-2,7.895399630E-2,1.582890004E-1,1.779762312E-1
8.801525960E-1,3.711299971E-2,7.724600285E-2,1.769910008E-1,1.966472325E-1
8.851639800E-1,3.969800100E-2,5.932199955E-2,1.647060066E-1,1.795079373E-1
8.901751360E-1,2.564599924E-2,3.985200077E-2,1.142449975E-1,1.236843511E-1
8.951864520E-1,1.207699999E-2,2.130199969E-2,8.780500293E-2,9.115562330E-2
9.001978370E-1,-1.253999956E-2,1.511299983E-2,9.962999821E-2,1.015469886E-1
9.052090100E-1,-3.136900067E-2,9.004999883E-3,1.544539928E-1,1.578643092E-1
9.102203930E-1,-9.742700309E-2,3.158000065E-3,1.516309977E-1,1.802607926E-1
9.152317130E-1,-1.228030026E-1,-1.745799929E-2,-9.279499948E-2,1.549072985E-1
9.202428670E-1,-1.070280001E-1,-2.386000007E-2,-4.230850041E-1,4.370643123E-1
9.252542490E-1,-5.240900069E-2,-4.120200127E-2,-4.754970074E-1,4.801475943E-1
9.302656340E-1,-7.594999857E-3,-7.560200244E-2,-2.022980005E-1,2.160968019E-1
9.352769440E-1,2.955400012E-2,-9.186399728E-2,8.056700230E-2,1.257118721E-1
9.402880970E-1,8.739700168E-2,-9.921400249E-2,3.205350041E-1,3.467338216E-1
9.452994030E-1,1.386470050E-1,-8.123300225E-2,4.576190114E-1,4.850123217E-1
9.503107780E-1,1.255290061E-1,-5.879700184E-2,2.763830125E-1,3.091960356E-1
9.553219340E-1,1.934400015E-2,-6.862600148E-2,-4.368399829E-2,8.361824039E-2
9.603332390E-1,-9.597200155E-2,-6.607600302E-2,-2.466779947E-1,2.728125663E-1
9.653446240E-1,-1.574759930E-1,-6.623800099E-2,-2.631689906E-1,3.137579940E-1
9.703557800E-1,-1.709789932E-1,-4.181100056E-2,-1.219870001E-1,2.141560274E-1
9.753670850E-1,-1.814929992E-1,-4.246500134E-2,5.487100035E-2,1.943034013E-1
9.803784800E-1,-1.725959927E-1,-2.092999965E-2,1.907790005E-1,2.581163858E-1
9.853896360E-1,-1.473080069E-1,-2.158099972E-2,2.452660054E-1,2.869160188E-1
9.904010050E-1,-1.158040017E-1,3.096000059E-3,2.159440070E-1,2.450550269E-1
9.954123140E-1,-7.848200202E-2,2.750699967E-2,1.436250061E-1,1.659644602E-1
1.000423688E0,-6.814199686E-2,4.730600119E-2,7.378099859E-2,1.110172295E-1
1.005434844E0,-3.493599966E-2,8.121699840E-2,5.903099850E-2,1.063079662E-1
1.010446168E0,-1.664699987E-2,1.054319963E-1,5.867100134E-2,1.218003072E-1
1.015457552E0,-1.493799966E-2,1.154239997E-1,7.267700136E-2,1.372143946E-1
1.020468703E0,-3.739000065E-3,1.209269986E-1,4.844700173E-2,1.303243303E-1
1.025480086E0,9.655999951E-3,1.219730005E-1,3.385499865E-2,1.269520071E-1
1.030491395E0,2.281299978E-2,1.231840029E-1,-2.227999968E-3,1.252984259E-1
1.035502559E0,3.329899907E-2,1.106270030E-1,-9.487999603E-3,1.159188478E-1
1.040513942E0,2.020600066E-2,1.007499993E-1,1.197800040E-2,1.034520049E-1
1.045525237E0,1.438600011E-2,8.175700158E-2,2.632299997E-2,8.708653532E-2
1.050536390E0,1.571400091E-2,5.635600165E-2,2.642099932E-2,6.419499942E-2
1.055547769E0,3.546199948E-2,5.030500144E-2,1.464799978E-2,6.326697775E-2
1.060559154E0,1.526799984E-2,4.211200029E-2,7.633000147E-3,4.544001627E-2
1.065570218E0,-4.615300149E-2,-5.166700110E-2,-1.349399984E-2,7.058092221E-2
1.070581523E0,-5.923699960E-2,-8.942800015E-2,1.364000025E-3,1.072765111E-1
1.075592908E0,-5.784900114E-2,-5.898800120E-2,3.758599982E-2,9.076782800E-2
1.080604064E0,-8.872500062E-2,-4.354900122E-2,5.446499959E-2,1.128498003E-1
1.085615427E0,-1.324360073E-1,-3.552500159E-2,2.810399979E-2,1.399684127E-1
1.090626737E0,-1.492570043E-1,-2.999199927E-2,-1.267500035E-2,1.527672379E-1
1.095638120E0,-1.237379983E-1,-2.687700093E-2,-2.707099915E-2,1.294847651E-1
1.100649276E0,-7.572799921E-2,-5.202000029E-3,-3.424499929E-2,8.327370921E-2
1.105660586E0,-4.075400159E-2,-9.673999622E-3,-3.172799945E-2,5.254655900E-2
1.110671971E0,-3.004300036E-2,-1.633100025E-2,-3.393800184E-2,4.817749899E-2
1.115683136E0,-3.121799976E-2,-2.045300044E-2,-3.852700070E-2,5.363971028E-2
1.120694518E0,-2.308800071E-2,-2.458599955E-2,-2.155900002E-2,4.002895992E-2
1.125705838E0,-1.767900027E-2,-2.874800004E-2,-1.413699985E-2,3.659028999E-2
1.130716992E0,-1.724700071E-2,-3.770999983E-2,1.004999969E-2,4.266738350E-2
1.135728375E0,-1.924899966E-2,-4.896999896E-2,3.904100135E-2,6.551934502E-2
1.140739759E0,-2.127400041E-2,-4.165399820E-2,7.752799988E-2,9.054407448E-2
1.145750838E0,-1.157400012E-2,-3.026000038E-2,1.207220033E-1,1.249937086E-1
1.150762144E0,-4.447999876E-3,-1.931699924E-2,1.351570040E-1,1.366028802E-1
1.155773518E0,9.658999741E-3,-1.098699961E-2,1.280429959E-1,1.288759840E-1
1.160784674E0,2.340699919E-2,-7.397000212E-3,1.042179987E-1,1.070700447E-1
1.165796067E0,3.461499885E-2,7.957000285E-3,8.516500145E-2,9.227453317E-2
1.170807377E0,2.948400006E-2,-4.796999972E-3,9.009099752E-2,9.491419968E-2
1.175818759E0,8.484999649E-3,-3.317499906E-2,8.551900089E-2,9.211989630E-2
1.180829939E0,-2.116199955E-2,-5.133900046E-2,9.292100370E-2,1.082489544E-1
1.185841322E0,-2.436999977E-2,-6.904900074E-2,9.797900170E-2,1.223173993E-1
1.190852626E0,-9.138000198E-3,-7.229600102E-2,7.918900251E-2,1.076155794E-1
1.195863780E0,-1.079500001E-2,-7.537899911E-2,3.411100060E-2,8.343911489E-2
1.200875163E0,-1.045100018E-2,-7.124900073E-2,-1.570799947E-2,7.370471326E-2
1.205886478E0,-1.966599934E-2,-4.895599931E-2,4.201399907E-2,6.744343939E-2
1.210897632E0,-4.028699920E-2,-2.532199956E-2,1.545760036E-1,1.617343094E-1
1.215909009E0,-6.480199844E-2,-1.900699921E-2,2.358680069E-1,2.453452297E-1
1.220920319E0,-6.743499637E-2,-1.281199977E-2,2.381460071E-1,2.478409707E-1
1.225931720E0,-7.214800268E-2,-1.323499996E-2,1.519349962E-1,1.687149744E-1
1.230942876E0,-6.744699925E-2,-2.912200056E-2,-8.259999566E-3,7.392845337E-2
1.235954182E0,-7.009200007E-2,-2.764300071E-2,-1.300700009E-1,1.503170951E-1
1.240965553E0,-6.356299669E-2,-2.613200061E-2,-1.609060019E-1,1.749682184E-1
1.245976709E0,-4.814099893E-2,-4.623000044E-3,-4.592800140E-2,6.669564619E-2
1.250988091E0,-1.228899974E-2,5.770000163E-3,9.526000172E-2,9.622255632E-2
1.255999425E0,1.328399964E-2,7.966999896E-3,1.909070015E-1,1.915343858E-1
1.261010807E0,2.439299971E-2,1.430900022E-2,2.099040002E-1,2.118005080E-1
1.266021886E0,3.282200173E-2,2.528700046E-2,1.619080007E-1,1.671254525E-1
1.271033245E0,1.766799949E-2,3.642699867E-2,8.279699832E-2,9.216521779E-2
1.276044401E0,-1.573199965E-2,4.292799905E-2,6.105300039E-2,7.627435855E-2
1.281055788E0,-3.416100144E-2,9.584199637E-2,6.776800007E-2,1.222504156E-1
1.286067097E0,-1.961700059E-2,1.745199971E-2,2.944000065E-2,3.944759365E-2
1.291078251E0,-3.162000095E-3,1.335600019E-2,7.732100040E-2,7.852972742E-2
1.296089557E0,-1.254499983E-2,3.269200027E-2,1.035510004E-1,1.093112692E-1
1.301100951E0,-2.374199964E-2,4.938900098E-2,8.422800153E-2,1.004853831E-1
1.306112107E0,-3.903200105E-2,4.042199999E-2,5.057200044E-2,7.559737044E-2
1.311123413E0,-3.742700070E-2,4.606200010E-2,7.366000209E-3,5.980590434E-2
1.316134793E0,-4.030200094E-2,4.944299906E-2,-4.743999802E-3,6.396379422E-2
1.321146177E0,-4.281000048E-2,5.984200165E-2,-1.212400012E-2,7.457045448E-2
1.326157314E0,-5.887499824E-2,7.682999969E-2,9.053000249E-3,9.721661938E-2
1.331168620E0,-5.115399882E-2,8.156699687E-2,1.584899984E-2,9.757611065E-2
1.336179776E0,-3.666500002E-2,9.987299889E-2,4.650700092E-2,1.161113227E-1
1.341191158E0,-4.820400104E-2,1.057170033E-1,8.664400131E-2,1.449375503E-1
1.346202468E0,-5.717200041E-2,9.952100366E-2,1.123960018E-1,1.606422392E-1
1.351213617E0,-7.536999881E-2,7.709400356E-2,1.118659973E-1,1.553644858E-1
1.356224999E0,-8.383700252E-2,5.288299918E-2,1.137949973E-1,1.509124117E-1
1.361236384E0,-9.695699811E-2,3.863399848E-2,9.662099928E-2,1.422282068E-1
1.366247685E0,-9.582799673E-2,3.882699832E-2,6.032799929E-2,1.197080125E-1
1.371258839E0,-9.489899874E-2,2.982000075E-2,3.606700152E-2,1.058105902E-1
1.376270221E0,-1.034549996E-1,9.465999901E-3,2.623800002E-2,1.071493105E-1
1.381281531E0,-1.118350029E-1,-5.714000203E-3,3.319500014E-2,1.167973703E-1
1.386292685E0,-9.223499894E-2,-1.370000001E-2,4.500799999E-2,1.035408378E-1
1.391304053E0,-3.862800077E-2,-7.774000056E-3,4.497800022E-2,5.979613720E-2
1.396315363E0,-3.023999976E-3,4.726000130E-3,3.541500121E-2,3.585668646E-2
1.401326746E0,1.308999956E-3,6.169999833E-4,1.152899954E-2,1.161946644E-2
1.406337886E0,-1.051700022E-2,-1.484999992E-2,-9.937000461E-3,2.073339744E-2
1.411349191E0,-3.787299991E-2,-3.647299856E-2,-2.420799993E-2,5.788498084E-2
1.416360591E0,-4.070299864E-2,-5.496099964E-2,-3.843599930E-2,7.845235256E-2
1.421371747E0,-2.908300050E-2,-6.354399770E-2,-2.869999968E-2,7.554700883E-2
1.426383129E0,-6.060999818E-3,-8.112700284E-2,-1.405000035E-2,8.255742739E-2
1.431394453E0,-9.275999852E-3,-9.834100306E-2,4.849899933E-2,1.100415830E-1
1.436405607E0,1.084099989E-2,-1.036000028E-1,9.914100170E-2,1.438034286E-1
1.441416927E0,1.635199971E-2,-9.228000045E-2,1.330340058E-1,1.627299391E-1
1.446428311E0,3.087999998E-3,-9.722299874E-2,1.143129990E-1,1.500976647E-1
1.451439467E0,-2.366399951E-2,-8.757600188E-2,6.682500243E-2,1.126726317E-1
1.456450773E0,-4.482800141E-2,-7.523600012E-2,2.552000107E-3,8.761574133E-2
1.461462158E0,-6.038499996E-2,-6.279899925E-2,-3.307300061E-2,9.318736983E-2
1.466473313E0,-8.442100137E-2,-4.121499881E-2,-1.381999999E-2,9.495564228E-2
1.471484711E0,-1.397099942E-1,-2.278699912E-2,6.732799858E-2,1.567519990E-1
1.476496021E0,-1.921560019E-1,-2.355900034E-2,1.051319987E-1,2.202990983E-1
1.481507403E0,-1.950999945E-1,-3.497799858E-2,-1.274330020E-1,2.356409095E-1
1.486518568E0,-1.718039960E-1,-3.318599984E-2,-3.957090080E-1,4.326702470E-1
1.491529874E0,-1.175249964E-1,-6.635600328E-2,-4.147520065E-1,4.361587680E-1
1.496541030E0,-4.100799933E-2,-9.571799636E-2,-1.033250019E-1,1.466957629E-1
1.501552412E0,3.416800126E-2,-9.576199949E-2,2.010229975E-1,2.252732971E-1
1.506563722E0,1.108499989E-1,-9.858199954E-2,3.213689923E-1,3.539550284E-1
1.511575105E0,1.593959928E-1,-9.392300248E-2,3.151040077E-1,3.654027211E-1
1.516586261E0,1.549900025E-1,-8.844199777E-2,1.223390028E-1,2.163578504E-1
1.521597566E0,8.934299648E-2,-9.120400250E-2,-1.708299965E-1,2.132679741E-1
1.526608961E0,-5.324000027E-3,-1.027249992E-1,-3.276860118E-1,3.434514416E-1
1.531620117E0,-6.270000339E-2,-9.126900136E-2,-2.909770012E-1,3.113341232E-1
1.536631428E0,-1.020070016E-1,-8.156300336E-2,-1.110600010E-1,1.714417560E-1
1.541642812E0,-1.117649972E-1,-6.662599742E-2,8.525600284E-2,1.555603554E-1
1.546653982E0,-6.248899922E-2,-6.037399918E-2,2.287960052E-1,2.447396715E-1
1.551665288E0,1.152700000E-2,-2.002199925E-2,2.573759854E-1,2.584108164E-1
1.556676672E0,3.957000002E-2,2.404100075E-2,1.925359964E-1,1.980249089E-1
1.561687842E0,5.508299917E-2,6.284900010E-2,1.061519980E-1,1.351013705E-1
1.566699225E0,6.538800150E-2,1.012480035E-1,5.325499922E-2,1.317681445E-1
1.571710545E0,7.538799942E-2,1.181389987E-1,7.218299806E-2,1.576405998E-1
1.576721698E0,5.739700049E-2,1.374730021E-1,8.626600355E-2,1.721483817E-1
1.581733076E0,4.247200117E-2,1.522430032E-1,7.399599999E-2,1.745199442E-1
1.586744386E0,9.647999890E-3,1.485140026E-1,4.972799867E-2,1.569151577E-1
1.591755550E0,-1.730900072E-2,1.382890046E-1,3.980699927E-2,1.449415312E-1
1.596766932E0,-4.565500095E-2,1.216510013E-1,3.946200013E-2,1.357961512E-1
1.601778346E0,-8.929400146E-2,9.176100045E-2,2.715899982E-2,1.308858708E-1
1.606789425E0,-1.131450012E-1,6.737200171E-2,3.642600030E-2,1.366295408E-1
1.611800807E0,-1.433199942E-1,3.446200117E-2,2.661000006E-2,1.497876576E-1
1.616812096E0,-1.262719929E-1,1.414399967E-2,2.411999926E-2,1.293307515E-1
1.621823481E0,-1.283549964E-1,-7.953999564E-3,2.410599962E-2,1.308410121E-1
1.626834637E0,-1.187869981E-1,-2.701899968E-2,9.851999581E-3,1.222188167E-1
1.631846005E0,-1.187999994E-1,-4.565000162E-2,2.676700056E-2,1.300531999E-1
1.636857315E0,-1.073250026E-1,-5.699500069E-2,4.135100171E-2,1.283627345E-1
1.641868703E0,-1.055800021E-1,-5.673500150E-2,6.786700338E-2,1.377386198E-1
1.646879858E0,-1.017640010E-1,-5.450100079E-2,7.999999821E-2,1.404502428E-1
1.651891168E0,-8.888799697E-2,-5.017799884E-2,7.778500021E-2,1.283332141E-1
1.656902324E0,-7.638099790E-2,-4.384699836E-2,8.033700287E-2,1.192084315E-1
1.661913707E0,-5.724500120E-2,-3.075800091E-2,8.766999841E-2,1.091287011E-1
1.666925016E0,-2.926299907E-2,-2.523100004E-2,1.093790010E-1,1.160029841E-1
1.671936170E0,2.410000016E-4,-1.991700009E-2,1.191760004E-1,1.208290695E-1
1.676947563E0,2.871499956E-2,-7.903000340E-3,1.290079951E-1,1.324011761E-1
1.681958872E0,7.257000357E-2,1.316000009E-3,1.221669987E-1,1.421017693E-1
1.686970255E0,1.035510004E-1,5.481999833E-3,1.201639995E-1,1.587206627E-1
1.691981416E0,8.732499927E-2,4.807000048E-3,1.204869971E-1,1.488820984E-1
1.696992722E0,6.948199868E-2,-6.409999914E-4,1.422729939E-1,1.583343419E-1
1.702004106E0,4.285199940E-2,-1.338999951E-3,1.400489956E-1,1.464643573E-1
1.707015262E0,3.094599955E-2,-1.126000006E-2,1.258739978E-1,1.301103601E-1
1.712026568E0,2.177299932E-2,-1.842200011E-2,1.045359969E-1,1.083568560E-1
1.717037714E0,5.979000125E-3,-4.240999930E-3,7.593999803E-2,7.629297362E-2
1.722049096E0,-1.398999989E-2,-1.350700017E-2,5.691900104E-2,6.014924630E-2
1.727060406E0,-3.322400153E-2,-1.319800038E-2,6.893499941E-2,7.765343286E-2
1.732071789E0,-7.033900172E-2,-1.760900021E-2,9.040600061E-2,1.158917469E-1
1.737082945E0,-7.150600106E-2,-1.991900057E-2,1.190119982E-1,1.402630760E-1
1.742094250E0,-8.198700100E-2,-4.067699984E-2,9.025699645E-2,1.285410909E-1
1.747105396E0,-8.502300084E-2,-6.300500035E-2,5.680400133E-2,1.201051011E-1
1.752117010E0,-6.488499790E-2,-5.635200068E-2,-1.243000012E-2,8.683384039E-2
1.757128165E0,-2.913399972E-2,-4.043700173E-2,-2.655900083E-2,5.647407878E-2
1.762139457E0,-6.198000163E-3,-2.255900018E-2,-2.869899943E-2,3.702642656E-2
1.767150842E0,-2.695000032E-3,-1.424400043E-2,-4.755900055E-2,4.971934339E-2
1.772161983E0,-2.262200043E-2,-1.826999942E-3,-1.953999978E-3,2.277961694E-2
1.777173288E0,-4.643699899E-2,5.073999986E-3,9.849800169E-2,1.090137454E-1
1.782184435E0,-3.465000167E-2,6.959999911E-3,1.415179968E-1,1.458643467E-1
1.787195741E0,-3.697000071E-2,1.916000037E-3,1.175459996E-1,1.232376324E-1
1.792207125E0,-2.746099979E-2,9.406999685E-3,-2.049000002E-3,2.909976896E-2
1.797218510E0,-4.618100077E-2,3.615000052E-3,-1.406880021E-1,1.481177471E-1
1.802229666E0,-4.583600163E-2,-8.313000202E-3,-2.097810060E-1,2.148909386E-1
1.807240972E0,-5.260600150E-2,-1.322599966E-2,-1.783999950E-1,1.864641431E-1
1.812252097E0,-4.761600122E-2,-1.184799988E-2,-6.815499812E-2,8.398072661E-2
1.817263480E0,-1.015099976E-2,1.590000029E-4,5.875400081E-2,5.962466510E-2
1.822274790E0,1.495099999E-2,1.102999970E-2,1.376889944E-1,1.389368651E-1
1.827286172E0,4.877899960E-2,4.229199886E-2,1.232260019E-1,1.391138077E-1
1.832297557E0,5.849799886E-2,6.795799732E-2,8.473999798E-2,1.233741161E-1
1.837308636E0,4.211299866E-2,8.833900094E-2,5.573699996E-2,1.126228081E-1
1.842320019E0,4.204000160E-2,1.216759980E-1,1.127320006E-1,1.711166684E-1
1.847331408E0,2.986500040E-2,9.791400284E-2,1.027870029E-1,1.450663233E-1
1.852342564E0,-7.648000028E-3,8.207000047E-2,2.345299907E-2,8.569725811E-2
1.857353947E0,-2.748499997E-2,6.496199965E-2,-3.667299822E-2,7.950091459E-2
1.862365251E0,-6.949699670E-2,4.660100117E-2,-5.374800041E-2,9.945015540E-2
1.867376405E0,-9.365099669E-2,3.368699923E-2,5.727000069E-3,9.969012803E-2
1.872387692E0,-1.192160025E-1,2.104699984E-2,9.864600003E-2,1.561616623E-1
1.877398848E0,-1.277180016E-1,-5.450000055E-3,1.604939997E-1,2.051826366E-1
1.882410154E0,-1.289619952E-1,-2.910099924E-2,1.769330055E-1,2.208695379E-1
1.887421538E0,-1.208399981E-1,-3.805299848E-2,1.431870013E-1,1.911880048E-1
1.892432694E0,-1.081990004E-1,-5.112599954E-2,7.366599888E-2,1.405260506E-1
1.897444072E0,-1.052120030E-1,-4.966399819E-2,6.570999976E-3,1.165300662E-1
1.902455381E0,-9.075699747E-2,-4.789400101E-2,-3.650199994E-2,1.089176933E-1
1.907466764E0,-7.215899974E-2,-4.380799830E-2,-3.645199910E-2,9.195004185E-2
1.912477905E0,-3.574199975E-2,-3.517900035E-2,-1.716200076E-2,5.300553633E-2
1.917489211E0,6.513000000E-3,-1.063400041E-2,1.410899963E-2,1.882989656E-2
1.922500595E0,3.123999946E-2,1.390999998E-3,5.495100096E-2,6.322566689E-2
1.927511751E0,3.905799985E-2,-3.390999977E-3,8.623100072E-2,9.472492660E-2
1.932523134E0,3.289299831E-2,-5.853999872E-3,1.078929976E-1,1.129474107E-1
1.937534448E0,2.708099969E-2,7.942999713E-3,1.103100032E-1,1.138629377E-1
1.942545602E0,1.687899977E-2,2.834700048E-2,1.006449983E-1,1.059144407E-1
1.947556908E0,1.165500004E-2,3.423200175E-2,1.124769971E-1,1.181471279E-1
1.952568303E0,-4.210000043E-4,3.305099905E-2,9.557600319E-2,1.011302040E-1
1.957579458E0,-5.136999767E-3,1.826700009E-2,6.440299749E-2,6.714028705E-2
1.962590783E0,-2.600199915E-2,8.701000363E-3,4.758799821E-2,5.492202601E-2
1.967602168E0,-3.001900017E-2,-5.028999876E-3,3.084800020E-2,4.333624727E-2
1.972613324E0,-4.557000101E-2,-2.287100069E-2,3.090799972E-2,5.962392231E-2
1.977624629E0,-6.531400234E-2,-2.856599912E-2,1.896999963E-2,7.376853050E-2
1.982636014E0,-7.964900136E-2,-4.115999863E-2,3.333299980E-2,9.565143898E-2
1.987647175E0,-1.073120013E-1,-6.052200124E-2,5.004600063E-2,1.329788721E-1
1.992658557E0,-1.224600002E-1,-7.247400284E-2,5.477600172E-2,1.524773528E-1
1.997669857E0,-1.417600065E-1,-8.880600333E-2,3.796499968E-2,1.715335153E-1
2.002681240E0,-1.419759989E-1,-7.914300263E-2,3.308299929E-2,1.658773160E-1
2.007692396E0,-1.120259985E-1,-7.921800017E-2,2.587899938E-2,1.396246343E-1
2.012703808E0,-8.300399780E-2,-7.947800308E-2,3.787999973E-2,1.210012851E-1
2.017714887E0,-5.257400125E-2,-7.294300199E-2,4.753199965E-2,1.017054479E-1
2.022726270E0,-2.759799920E-2,-6.915900111E-2,8.591099828E-2,1.136895625E-1
2.027737592E0,-1.034600008E-2,-4.946000129E-2,1.098700017E-1,1.209328273E-1
2.032748976E0,2.727299929E-2,-1.653699949E-2,1.266040057E-1,1.305598066E-1
2.037760371E0,5.465099961E-2,3.762000008E-3,1.480959952E-1,1.579028442E-1
2.042771527E0,5.795399845E-2,2.120300010E-2,1.168920025E-1,1.321815925E-1
2.047782832E0,5.176899955E-2,4.528500140E-2,8.560799807E-2,1.098157093E-1
2.052793988E0,3.419100121E-2,4.791599885E-2,5.906900018E-2,8.339133223E-2
2.057805351E0,-1.076500025E-2,6.464000046E-2,2.040099911E-2,6.863246794E-2
2.062816661E0,-4.960099980E-2,6.915500015E-2,5.096799880E-2,9.919884137E-2
2.067827843E0,-7.789400220E-2,7.092499733E-2,1.148959994E-1,1.558811134E-1
2.072839149E0,-1.373209953E-1,6.764099747E-2,1.689960063E-1,2.280175660E-1
2.077850525E0,-1.752219945E-1,5.101799965E-2,7.654999848E-3,1.826586507E-1
2.082861681E0,-1.764879972E-1,3.839699924E-2,-3.018909991E-1,3.517961313E-1
2.087872986E0,-1.387079954E-1,8.186000399E-3,-4.292069972E-1,4.511380775E-1
2.092884371E0,-8.967400342E-2,-3.843599930E-2,-2.235739976E-1,2.439345923E-1
2.097895527E0,-3.657399863E-2,-7.149799913E-2,1.305930018E-1,1.533106434E-1
2.102906909E0,2.420000033E-3,-9.277399629E-2,3.102500141E-1,3.238332009E-1
2.107918219E0,3.500299901E-2,-9.453800321E-2,3.249959946E-1,3.402720095E-1
2.112929373E0,3.814199939E-2,-6.970799714E-2,1.914889961E-1,2.073211341E-1
2.117940751E0,2.396599948E-2,-4.645000026E-2,-1.021770015E-1,1.147698188E-1
2.122952060E0,-1.847600006E-2,-4.787199944E-2,-3.932650089E-1,3.965986109E-1
2.127963214E0,-3.215200081E-2,-4.592699930E-2,-5.286809802E-1,5.316452005E-1
2.132974833E0,-5.400199816E-2,-4.621300101E-2,-4.799489975E-1,4.851833648E-1
2.137985912E0,-5.523100123E-2,-3.997400030E-2,-3.165839911E-1,3.238422573E-1
2.142997065E0,-5.713799968E-2,-2.790600061E-2,-8.656500280E-2,1.074104073E-1
2.148008448E0,-1.376799960E-2,-8.086999878E-3,1.216839999E-1,1.227271494E-1
2.153019756E0,4.742899910E-2,2.630800009E-2,2.603600025E-1,2.659491525E-1
2.158030883E0,6.492300332E-2,4.238500074E-2,3.462350070E-1,3.548100404E-1
2.163042265E0,-6.924200058E-2,8.449000306E-3,3.791350126E-1,3.854986356E-1
2.168053584E0,-2.508749962E-1,-5.522599816E-2,3.925980031E-1,4.691709354E-1
2.173064967E0,-2.367620021E-1,-6.828100234E-2,3.080529869E-1,3.944809040E-1
2.178076118E0,-3.498300165E-2,-3.757999977E-3,1.688510031E-1,1.724778078E-1
2.183087424E0,2.026270032E-1,7.809200138E-2,7.314500213E-2,2.291424326E-1
2.188098809E0,3.380570114E-1,1.373230070E-1,1.835799962E-2,3.653452714E-1
2.193109965E0,3.442350030E-1,1.741490066E-1,3.525900096E-2,3.873871590E-1
2.198121249E0,2.900829911E-1,1.822309941E-1,6.874000281E-2,3.494015812E-1
2.203132634E0,2.005050033E-1,1.833139956E-1,8.044400066E-2,2.833328689E-1
2.208143781E0,1.415520012E-1,1.703789979E-1,1.159439981E-1,2.500179647E-1
2.213155163E0,5.391100049E-2,1.347000003E-1,1.298359931E-1,1.946994380E-1
2.218166463E0,-1.752999984E-2,9.526500106E-2,1.700100005E-1,1.956683970E-1
2.223177617E0,-1.278899983E-2,8.262600005E-2,1.337130070E-1,1.577015619E-1
2.228189000E0,2.212000079E-2,7.761400193E-2,8.560299873E-2,1.176482092E-1
2.233200309E0,4.221700132E-2,7.079000026E-2,1.607800089E-2,8.397619573E-2
2.238211463E0,3.168300167E-2,6.230099872E-2,-2.946400084E-2,7.585086935E-2
2.243222851E0,-8.634000085E-3,4.261400178E-2,-2.239299938E-2,4.890752014E-2
2.248234160E0,-3.147900105E-2,2.359000035E-2,-1.291100029E-2,4.140180614E-2
2.253245314E0,-6.518600136E-2,-1.643999945E-3,3.769000061E-3,6.531556377E-2
2.258256682E0,-9.774599969E-2,-4.934399948E-2,3.249799833E-2,1.142157197E-1
2.263267992E0,-1.244560033E-1,-9.110300243E-2,7.563599944E-2,1.717843364E-1
2.268279132E0,-1.247169971E-1,-1.293109953E-1,9.020800143E-2,2.010302127E-1
2.273290514E0,-1.110140011E-1,-1.478289962E-1,7.617700100E-2,1.999511341E-1
2.278301899E0,-9.995699674E-2,-1.516969949E-1,3.589500114E-2,1.851805351E-1
2.283313208E0,-9.151899815E-2,-1.483169943E-1,2.436099946E-2,1.759747599E-1
2.288324362E0,-7.637599856E-2,-1.381410062E-1,2.479100041E-2,1.597836802E-1
2.293335749E0,-6.192100048E-2,-1.307110041E-1,2.524100058E-2,1.468219500E-1
2.298347059E0,-2.711199969E-2,-1.075140014E-1,3.045699932E-2,1.149867377E-1
2.303358228E0,-5.051999819E-3,-1.060680002E-1,3.811199963E-2,1.128205118E-1
2.308369610E0,4.554000217E-3,-7.683999836E-2,1.936399937E-2,7.937309833E-2
2.313380915E0,1.382400002E-2,-6.731600314E-2,5.082200095E-2,8.547176748E-2
2.318392069E0,-9.774999693E-3,-5.128800124E-2,6.777100265E-2,8.555067791E-2
2.323403364E0,-3.531299904E-2,-3.589300066E-2,8.219899982E-2,9.639497378E-2
2.328414749E0,-2.069699951E-2,-2.118300088E-2,9.657999873E-2,1.010187184E-1
2.333425905E0,-2.296499908E-2,-9.300000238E-5,9.172199667E-2,9.455328923E-2
2.338437211E0,-4.463000223E-3,1.077799965E-2,1.083820015E-1,1.090079901E-1
2.343448595E0,6.322000176E-3,1.881599985E-2,1.250319928E-1,1.265978229E-1
2.348459751E0,-1.820899919E-2,1.953200065E-2,1.105000004E-1,1.136807670E-1
2.353471062E0,-3.986300156E-2,6.269000005E-3,9.836799651E-2,1.063231959E-1
2.358482446E0,-1.004260033E-1,-1.105500013E-2,4.070400074E-2,1.089238764E-1
2.363493607E0,-1.637630016E-1,-2.995200083E-2,-1.224800013E-2,1.669294957E-1
2.368504990E0,-2.018299997E-1,-5.048000067E-2,-7.790999953E-3,2.081928887E-1
2.373516314E0,-2.269739956E-1,-7.536199689E-2,7.081799954E-2,2.494229627E-1
2.378527467E0,-2.326740026E-1,-7.908900082E-2,1.589249969E-1,2.926592151E-1
2.383538855E0,-2.056020051E-1,-8.277499676E-2,1.729270071E-1,2.811185415E-1
2.388550240E0,-1.771129966E-1,-6.718599796E-2,6.021500006E-2,1.987682523E-1
2.393561536E0,-1.309610009E-1,-3.965599835E-2,-7.389900088E-2,1.555134859E-1
2.398572690E0,-8.640799671E-2,-3.779299930E-2,-1.575260013E-1,1.836003643E-1
2.403584004E0,-3.194800019E-2,-1.754299924E-2,-1.309999973E-1,1.359758465E-1
2.408595160E0,6.635999773E-3,-5.485999864E-3,-4.225999862E-2,4.312818302E-2
2.413606542E0,3.026900068E-2,-2.473000064E-2,6.804200262E-2,7.846973591E-2
2.418617848E0,4.172400013E-2,-4.383999854E-3,9.446399659E-2,1.033612998E-1
2.423629002E0,3.446099907E-2,-8.069999749E-4,5.862899870E-2,6.801155192E-2
2.428640615E0,2.286599949E-2,9.910999797E-3,5.998999812E-3,2.563337372E-2
2.433651785E0,2.093200013E-2,2.521499991E-2,-2.752299979E-2,4.279556481E-2
2.438663091E0,2.596900053E-2,3.791499883E-2,-2.516099997E-2,5.239286253E-2
2.443674252E0,2.170200087E-2,5.928999931E-2,2.251799963E-2,6.703238894E-2
2.448685634E0,1.530900039E-2,5.435400084E-2,4.385299981E-2,7.149691246E-2
2.453696968E0,-7.160999812E-3,5.881299824E-2,5.792399868E-2,8.285794050E-2
2.458708351E0,-1.503999997E-2,5.373600125E-2,7.437299937E-2,9.297904315E-2
2.463719507E0,4.972999915E-3,7.663500309E-2,8.601199836E-2,1.153070609E-1
2.468730802E0,-3.733000020E-3,5.457900092E-2,9.532900155E-2,1.099109693E-1
2.473741958E0,-2.163100056E-2,5.673300102E-2,3.764899820E-2,7.144214902E-2
2.478753278E0,-4.115499929E-2,3.129599988E-2,2.790799923E-2,5.875397856E-2
2.483764663E0,-5.534699932E-2,2.068199962E-2,5.168100074E-2,7.849816099E-2
2.488775818E0,-8.530399948E-2,5.708000157E-3,5.866900086E-2,1.036889833E-1
2.493787100E0,-1.144419983E-1,-4.317999817E-3,7.996000350E-2,1.396754032E-1
2.498798485E0,-1.124870032E-1,-4.850000143E-3,7.252900302E-2,1.339302231E-1
2.503809646E0,-1.013400033E-1,-2.828000113E-3,3.165400028E-2,1.062062597E-1
2.508821028E0,-8.586099744E-2,8.475000039E-3,1.710500009E-2,8.795747572E-2
2.513832338E0,-5.680099875E-2,1.731400006E-2,1.218700036E-2,6.061889998E-2
2.518843502E0,-2.169100009E-2,3.047199920E-2,4.081299901E-2,5.536012200E-2
2.523854884E0,2.866099961E-2,4.779399931E-2,7.667300105E-2,9.478643552E-2
2.528866194E0,6.367599964E-2,5.513000116E-2,1.077829972E-1,1.367886123E-1
2.533877357E0,6.984300166E-2,5.287700146E-2,1.101889983E-1,1.407680273E-1
2.538888740E0,6.193500012E-2,4.833700135E-2,1.030139998E-1,1.295542129E-1
2.543900040E0,3.802800179E-2,3.230300173E-2,9.104800224E-2,1.038236560E-1
2.548911194E0,1.466399990E-2,9.778999723E-3,7.433699816E-2,7.639797788E-2
2.553922577E0,-1.053099986E-2,-9.681000374E-3,4.091199860E-2,4.334068938E-2
2.558933896E0,-3.257000074E-2,-2.864399925E-2,6.491199881E-2,7.806952818E-2
2.563945278E0,-3.785299882E-2,-3.124300018E-2,1.199690029E-1,1.296207400E-1
2.568956405E0,-4.780799896E-2,-4.357999936E-2,1.630270034E-1,1.753927734E-1
2.573967711E0,-8.319699764E-2,-4.178699851E-2,1.174350008E-1,1.498628476E-1
2.578979095E0,-1.102000028E-1,-4.417400062E-2,2.155799977E-2,1.206653650E-1
2.583990251E0,-1.314850003E-1,-4.127199948E-2,-4.323000088E-2,1.444317008E-1
2.589001557E0,-1.355209947E-1,-4.051300138E-2,-1.949400082E-2,1.427839604E-1
2.594012737E0,-1.184149981E-1,-4.224399850E-2,5.930500105E-2,1.390098929E-1
2.599024119E0,-1.040209979E-1,-5.124599859E-2,1.141920015E-1,1.627462245E-1
2.604035429E0,-8.085300028E-2,-7.437799871E-2,1.500409991E-1,1.859612749E-1
2.609046803E0,-4.931899905E-2,-7.134500146E-2,1.309439987E-1,1.570630564E-1
2.614057959E0,-1.431799959E-2,-7.072599977E-2,8.325099945E-2,1.101721429E-1
2.619069264E0,3.325700015E-2,-5.144599825E-2,5.480299890E-2,8.219542252E-2
2.624080649E0,6.294900179E-2,-2.096199989E-2,2.635899931E-2,7.139172999E-2
2.629091805E0,4.979899898E-2,-7.253000047E-3,-9.285000153E-3,5.117379737E-2
2.634103100E0,3.950500116E-2,-1.006099954E-2,1.727199927E-2,4.427404191E-2
2.639114485E0,4.109299928E-2,-1.290099975E-2,4.622900113E-2,6.318378692E-2
2.644125641E0,3.803100064E-2,-3.658200055E-2,3.697999939E-2,6.443694693E-2
2.649137024E0,3.751400113E-2,-3.403899819E-2,4.206199944E-2,6.584197351E-2
2.654148319E0,2.549199946E-2,-3.376400098E-2,1.122299954E-2,4.376991567E-2
2.659159473E0,1.849900000E-2,-2.174299955E-2,4.263000097E-3,2.886423739E-2
2.664171087E0,7.373999804E-3,-1.711999997E-2,2.592599951E-2,3.193161009E-2
2.669182160E0,-1.701899990E-2,-1.491800044E-2,3.551600128E-2,4.211388657E-2
2.674193314E0,-3.328799829E-2,5.841000006E-3,4.254499823E-2,5.433493338E-2
2.679204616E0,-3.708299994E-2,3.068600036E-2,3.028799966E-2,5.686952107E-2
2.684216001E0,-4.040199891E-2,2.472100034E-2,3.238299862E-2,5.737689407E-2
2.689227157E0,-4.574599862E-2,2.815200016E-2,3.681400046E-2,6.511913799E-2
2.694238462E0,-4.870200157E-2,1.516999956E-2,3.889799863E-2,6.414879688E-2
2.699249847E0,-5.161799863E-2,1.631600037E-2,8.880499750E-2,1.040046020E-1
2.704260998E0,-4.291300103E-2,5.712999962E-3,1.004879996E-1,1.094166445E-1
2.709272380E0,-3.678299859E-2,-2.056000056E-3,7.874500006E-2,8.693670776E-2
2.714283676E0,-4.257199913E-2,-6.885000039E-3,2.596499957E-2,5.033844990E-2
2.719295059E0,-4.125399888E-2,-1.142000034E-2,1.630299911E-2,4.580498457E-2
2.724306229E0,-4.503000155E-2,-1.843499951E-2,7.126600295E-2,8.629248764E-2
2.729317534E0,-1.187409982E-1,-2.301299945E-2,8.538199961E-2,1.480510340E-1
2.734328919E0,-2.014050037E-1,-1.351599954E-2,1.087519974E-1,2.292894561E-1
2.739340061E0,-2.199130058E-1,3.612000030E-3,-3.549600020E-2,2.227885605E-1
2.744351366E0,-1.856079996E-1,2.187100053E-2,-3.112140000E-1,3.630190408E-1
2.749362751E0,-1.149030030E-1,4.964600131E-2,-4.096859992E-1,4.283807225E-1
2.754373907E0,-2.618600056E-2,2.900099941E-2,-1.896529943E-1,1.936363159E-1
2.759385213E0,6.785599887E-2,-1.838600077E-2,1.216389984E-1,1.404938701E-1
2.764396616E0,1.413750052E-1,-4.670799896E-2,2.537969947E-1,2.942472494E-1
2.769407772E0,1.660220027E-1,-6.469999999E-2,2.736870050E-1,3.265791973E-1
2.774419077E0,1.620859951E-1,-5.549899861E-2,9.985999763E-2,1.983028688E-1
2.779430461E0,9.509100020E-2,-3.594499826E-2,-1.338250041E-1,1.680579452E-1
2.784441617E0,2.698200010E-2,-1.620200090E-2,-2.694909871E-1,2.713225484E-1
2.789452919E0,-2.093200013E-2,-4.217000213E-3,-2.426140010E-1,2.435518122E-1
2.794464304E0,-6.259399652E-2,-3.049999941E-4,-1.250649989E-1,1.398547653E-1
2.799475459E0,-1.047969982E-1,-9.145000018E-3,3.288200125E-2,1.102146445E-1
2.804486842E0,-1.381379962E-1,-2.569600008E-2,1.547079980E-1,2.089903229E-1
2.809498147E0,-1.376200020E-1,-2.162599936E-2,2.141630054E-1,2.554853062E-1
2.814509301E0,-1.205739975E-1,-1.585000008E-2,2.161159962E-1,2.479827317E-1
2.819520697E0,-8.999799937E-2,3.409999888E-3,1.917079985E-1,2.118094065E-1
2.824532007E0,-6.043799967E-2,5.698999856E-3,1.769369990E-1,1.870613055E-1
2.829543390E0,-2.006700076E-2,1.471399982E-2,1.861409992E-1,1.877968527E-1
2.834554540E0,7.476000115E-3,9.371999651E-3,2.049980015E-1,2.053482543E-1
2.839565923E0,2.958899923E-2,1.585100032E-2,2.191130072E-1,2.216692875E-1
2.844577016E0,3.934000060E-2,2.696000040E-2,2.045280039E-1,2.100147177E-1
2.849588399E0,4.640600085E-2,3.323899955E-2,1.803970039E-1,1.892126503E-1
2.854599711E0,3.921100125E-2,3.734600171E-2,1.562869996E-1,1.654020940E-1
2.859611096E0,3.441999853E-2,5.108499900E-2,1.297930032E-1,1.436684972E-1
2.864622257E0,2.491799928E-2,6.026199833E-2,9.614299983E-2,1.161718191E-1
2.869633563E0,2.480600029E-2,6.255999953E-2,7.690899819E-2,1.021963071E-1
2.874644947E0,3.384900093E-2,5.349799991E-2,6.975899637E-2,9.420248634E-2
2.879656117E0,2.652399987E-2,4.268300161E-2,6.505200267E-2,8.220172898E-2
2.884667423E0,1.019799989E-2,3.002299927E-2,6.993299723E-2,7.678543995E-2
2.889678579E0,-7.826999761E-3,3.403199837E-2,7.713200152E-2,8.466867482E-2
2.894689961E0,-2.048699930E-2,2.872199938E-2,5.559400097E-2,6.584347600E-2
2.899701271E0,-4.193000123E-2,3.302500024E-2,3.159299865E-2,6.202332794E-2
2.904712659E0,-5.554100126E-2,2.556799911E-2,2.430599928E-2,6.579746956E-2
2.909723814E0,-6.166499853E-2,3.238499910E-2,-4.556000233E-3,6.980055407E-2
2.914735120E0,-6.733000278E-2,2.273299918E-2,2.467999933E-3,7.110702884E-2
2.919746276E0,-5.869200081E-2,2.019700035E-2,2.623900026E-2,6.738809180E-2
2.924757659E0,-5.482299998E-2,1.520999987E-2,5.000299960E-2,7.574434231E-2
2.929768977E0,-4.628900066E-2,-1.296900027E-2,4.994300008E-2,6.931933213E-2
2.934780360E0,-5.180300027E-2,-1.714600064E-2,3.311499953E-2,6.382898534E-2
2.939791516E0,-6.873200089E-2,-4.898099974E-2,1.398099959E-2,8.554936955E-2
2.944802822E0,-8.515200019E-2,-7.049600035E-2,9.255000390E-3,1.109333324E-1
2.949813977E0,-8.961399645E-2,-7.041899860E-2,-2.638000064E-3,1.140020297E-1
2.954825370E0,-7.550799847E-2,-7.283300161E-2,9.436000139E-3,1.053334802E-1
2.959836680E0,-5.963499844E-2,-7.066400349E-2,2.632999979E-2,9.614053941E-2
2.964848072E0,-2.817299962E-2,-5.470199883E-2,2.651000023E-2,6.699855742E-2
2.969859228E0,-1.644399948E-2,-5.322799832E-2,3.151400015E-2,6.400591480E-2
2.974870530E0,1.094199996E-2,-3.329100087E-2,1.499100029E-2,3.811493398E-2
2.979881915E0,2.859999950E-4,-3.253100067E-2,3.194399923E-2,4.559349611E-2
2.984893074E0,-1.008499973E-2,-2.950399928E-2,4.167399928E-2,5.204724209E-2
2.989904380E0,-6.320999935E-3,-1.957000047E-2,4.899699986E-2,5.313798974E-2
2.994915765E0,-1.670400053E-2,-2.155599929E-2,5.391300097E-2,6.041768295E-2
2.999927145E0,-1.052599959E-2,-2.350099944E-2,5.645899847E-2,6.205410664E-2
3.004938301E0,4.712999798E-3,-2.759299986E-2,3.994299844E-2,4.877529224E-2
3.009949602E0,1.028500032E-2,-1.298500039E-2,5.209200084E-2,5.466230894E-2
3.014960758E0,6.337999832E-3,-1.049400028E-2,7.139500231E-2,7.243991053E-2
3.019972140E0,1.110000012E-4,-8.128999732E-3,6.913500279E-2,6.961136092E-2
3.024983455E0,-3.653000109E-3,-8.150000125E-3,5.251299962E-2,5.326708216E-2
3.029994838E0,-2.354599908E-2,-1.107000047E-3,1.427800022E-2,2.755904229E-2
3.035005994E0,-4.495000094E-2,-1.334000030E-3,5.491499975E-2,7.097844277E-2
3.040017361E0,-4.239600152E-2,4.964000080E-3,1.409280002E-1,1.472506825E-1
3.045028440E0,-4.680699855E-2,1.074500009E-2,1.981370002E-1,2.038740322E-1
3.050039823E0,-7.429099828E-2,-1.129900012E-2,1.572729945E-1,1.743032261E-1
3.055051125E0,-7.534299791E-2,-1.578300074E-2,4.711199924E-2,9.025082226E-2
3.060062510E0,-8.108499646E-2,-2.866300009E-2,-8.204299957E-2,1.188587313E-1
3.065073652E0,-1.009079963E-1,-4.555299878E-2,-1.417279989E-1,1.798452809E-1
3.070084958E0,-9.483999759E-2,-5.540100113E-2,-9.610199928E-2,1.459434491E-1
3.075096114E0,-6.365399808E-2,-6.332799792E-2,-2.567999996E-3,8.982684129E-2
3.080107505E0,-4.490999877E-2,-6.718900055E-2,7.895100117E-2,1.129802211E-1
3.085118815E0,-2.893899940E-2,-6.199999899E-2,9.343600273E-2,1.158091195E-1
3.090130197E0,-2.277199924E-2,-5.221100152E-2,5.288099870E-2,7.772356562E-2
3.095141353E0,-2.858199924E-2,-4.946599901E-2,2.773999935E-3,5.719712243E-2
3.100152659E0,-2.045200020E-2,-3.501800075E-2,-1.143399999E-2,4.213408412E-2
3.105164054E0,-1.264599990E-2,-2.117200010E-2,1.977100037E-2,3.160802678E-2
3.110175210E0,-7.402000017E-3,-1.712599955E-2,6.053499877E-2,6.334489357E-2
3.115186582E0,1.639799960E-2,-1.750000054E-3,8.691400290E-2,8.846468669E-2
3.120197892E0,3.254000098E-2,3.800000064E-3,9.176900238E-2,9.744147711E-2
3.125209056E0,5.973099917E-2,1.854100078E-2,8.709099889E-2,1.072212808E-1
3.130220361E0,7.678999752E-2,3.307899833E-2,7.287099957E-2,1.109103531E-1
3.135231517E0,6.787099689E-2,4.282699898E-2,7.776100188E-2,1.117470245E-1
3.140242900E0,5.702500045E-2,4.804300144E-2,8.264300227E-2,1.113096873E-1
3.145254210E0,2.560400032E-2,5.806399882E-2,8.264999837E-2,1.042017995E-1
3.150265592E0,-3.799999831E-5,6.325300038E-2,8.973400295E-2,1.097867696E-1
3.155276729E0,-1.783899963E-2,6.402300298E-2,6.808699667E-2,9.514732752E-2
3.160288112E0,-4.189899936E-2,6.957600266E-2,4.395600036E-2,9.234974965E-2
3.165299416E0,-5.346700177E-2,7.741799951E-2,4.129699990E-2,1.027507135E-1
3.170310570E0,-6.459300220E-2,7.807400078E-2,5.534499884E-2,1.154594060E-1
3.175321885E0,-6.140000001E-2,7.864700258E-2,7.417199761E-2,1.243253644E-1
3.180333270E0,-5.824299902E-2,7.203999907E-2,9.539599717E-2,1.329752032E-1
3.185344420E0,-4.831599817E-2,5.389700085E-2,9.517800063E-2,1.195749731E-1
3.190355803E0,-2.481300011E-2,4.526299983E-2,1.141740009E-1,1.253001461E-1
3.195367128E0,-2.532099932E-2,2.983300015E-2,1.021189988E-1,1.093592740E-1
3.200378282E0,-1.424099971E-2,2.408199944E-2,6.857900321E-2,7.406637868E-2
3.205389654E0,-2.672900073E-2,7.100000221E-5,4.229699820E-2,5.003479368E-2
3.210400964E0,-2.955600061E-2,-6.965999957E-3,2.321499959E-2,3.822327214E-2
3.215412118E0,-9.060000069E-3,-1.384699997E-2,3.292699903E-2,3.685119095E-2
3.220423424E0,6.161999889E-3,-6.606999785E-3,4.983599856E-2,5.064829160E-2
3.225434808E0,-4.557999782E-3,-1.354600023E-2,7.151500136E-2,7.292917731E-2
3.230446193E0,-1.729499921E-2,-2.265500091E-2,6.925799698E-2,7.489349911E-2
3.235457349E0,-2.730599977E-2,-3.616699949E-2,7.659000158E-2,8.899268407E-2
3.240468654E0,-3.945999965E-2,-3.764000162E-2,5.519200116E-2,7.758877681E-2
3.245480039E0,-4.659600183E-2,-3.429700062E-2,3.856199980E-2,6.953056498E-2
3.250491190E0,-6.041400135E-2,-4.012899846E-2,1.714799926E-2,7.452678682E-2
3.255502496E0,-5.970599875E-2,-3.644900024E-2,1.964000054E-2,7.265717808E-2
3.260513880E0,-5.880999938E-2,-4.439400136E-2,2.694500051E-2,7.845684442E-2
3.265525036E0,-6.012799963E-2,-5.200399831E-2,3.188199922E-2,8.565193550E-2
3.270536337E0,-8.684500307E-2,-4.550699890E-2,6.541199982E-2,1.178629341E-1
3.275547493E0,-8.261000365E-2,-4.863800108E-2,9.177199751E-2,1.327108412E-1
3.280558880E0,-6.922399998E-2,-3.077300079E-2,7.981500030E-2,1.100426009E-1
3.285570190E0,-3.989100084E-2,-2.969999984E-2,6.553900242E-2,8.227236946E-2
3.290581573E0,-3.699500114E-2,-2.390399948E-2,5.366000161E-2,6.942209355E-2
3.295592718E0,-2.267099917E-2,-2.989899926E-2,3.946100175E-2,5.445268606E-2
3.300604024E0,-1.857000054E-3,-3.329500183E-2,4.210799932E-2,5.371302639E-2
3.305615180E0,9.015999734E-3,-3.916599974E-2,7.349400222E-2,8.376533979E-2
3.310626563E0,7.780999877E-3,-4.263199866E-2,7.857599854E-2,8.973415635E-2
3.315637877E0,-9.736999869E-3,-4.605500028E-2,7.883100212E-2,9.181611575E-2
3.320649031E0,-1.050500013E-2,-4.242999852E-2,5.274799839E-2,6.850555551E-2
3.325660409E0,-3.672999889E-2,-4.581100121E-2,5.292600021E-2,7.904999777E-2
3.330671718E0,-3.435700014E-2,-3.277900070E-2,3.871199861E-2,6.126569335E-2
3.335683111E0,-4.145999998E-2,-1.322900038E-2,4.115200043E-2,5.989511824E-2
3.340694267E0,-1.813899912E-2,1.178000006E-3,5.078800023E-2,5.394285810E-2
3.345705567E0,-9.329999797E-3,8.096000180E-3,4.604300112E-2,4.767129185E-2
3.350716723E0,-7.706999779E-3,1.939800009E-2,4.363700002E-2,4.837218234E-2
3.355728105E0,-2.449299954E-2,1.656500064E-2,2.922499925E-2,4.157411278E-2
3.360739406E0,-4.752000049E-2,-9.445000440E-3,2.439299971E-2,5.424368087E-2
3.365750789E0,-8.358400315E-2,-1.379499957E-2,3.141099960E-2,9.035064190E-2
3.370761944E0,-8.357699960E-2,-2.965299971E-2,2.411800064E-2,9.190262896E-2
3.375773264E0,-7.416599989E-2,-3.120199963E-2,2.879899926E-2,8.546076690E-2
3.380784649E0,-5.560600013E-2,-3.289899975E-2,4.307299852E-2,7.765085084E-2
3.385795805E0,-4.008299857E-2,-4.160099849E-2,3.111100011E-2,6.561390232E-2
3.390807110E0,-1.355000027E-2,-4.783900082E-2,5.275300145E-2,7.249173518E-2
3.395818266E0,-1.903999946E-3,-4.015599936E-2,8.395799994E-2,9.308638598E-2
3.400829659E0,3.013899922E-2,-2.791599929E-2,7.456500083E-2,8.513284701E-2
3.405840968E0,3.330300003E-2,-1.114400011E-2,3.883200139E-2,5.235649799E-2
3.410852131E0,5.023299903E-2,1.256200019E-2,-4.054999910E-3,5.193843533E-2
3.415863514E0,4.561699927E-2,3.370200098E-2,-3.021300025E-2,6.426165946E-2
3.420874899E0,3.636100143E-2,3.571999818E-2,-1.809499972E-2,5.408761143E-2
3.425886208E0,1.810199954E-2,5.632700026E-2,2.739400044E-2,6.519850156E-2
3.430897362E0,4.900000058E-4,7.384999841E-2,8.708500117E-2,1.141834480E-1
3.435908764E0,-3.482199833E-2,8.606100082E-2,1.513510048E-1,1.775561717E-1
3.440920073E0,-1.053849980E-1,9.601899981E-2,9.090799838E-2,1.690855118E-1
3.445931237E0,-1.514959931E-1,7.674700022E-2,-1.753560007E-1,2.441124023E-1
3.450942620E0,-1.604209989E-1,6.166400015E-2,-3.912520111E-1,4.273353273E-1
3.455953930E0,-1.644230038E-1,3.767599910E-2,-3.342750072E-1,3.744251401E-1
3.460965307E0,-1.277099997E-1,-3.252000082E-3,-7.130199671E-2,1.463024069E-1
3.465976463E0,-5.436800048E-2,-4.923599958E-2,2.135560066E-1,2.258013088E-1
3.470987769E0,4.871200025E-2,-8.100400120E-2,4.006429911E-1,4.116422154E-1
3.475998925E0,1.465490013E-1,-8.617600054E-2,3.296059966E-1,3.708679359E-1
3.481010230E0,1.202550009E-1,-9.445200115E-2,2.665599994E-2,1.552191615E-1
3.486021601E0,4.031400010E-2,-6.658799946E-2,-1.902460009E-1,2.055546670E-1
3.491032757E0,3.747999901E-3,-3.227499872E-2,-2.206259966E-1,2.230057251E-1
3.496044063E0,-1.567099988E-2,-1.106499974E-2,-1.219789982E-1,1.234782995E-1
3.501055447E0,-5.493199825E-2,-1.675800048E-2,3.146100044E-2,6.548396415E-2
3.506066603E0,-1.109440029E-1,-2.535700053E-2,1.511009932E-1,1.891641070E-1
3.511077899E0,-1.183469966E-1,-1.333200000E-2,1.963649988E-1,2.296583693E-1
3.516089283E0,-1.230529994E-1,2.626999980E-3,1.960200071E-1,2.314579551E-1
3.521100439E0,-1.020760015E-1,8.647000417E-3,1.765429974E-1,2.041120051E-1
3.526111822E0,-7.727599889E-2,4.889999982E-4,1.428270042E-1,1.623926484E-1
3.531123132E0,-4.411900043E-2,8.938999847E-3,1.115989983E-1,1.203358980E-1
3.536134509E0,2.278699912E-2,1.031500008E-2,9.734400362E-2,1.005062267E-1
3.541145665E0,8.083900064E-2,4.198599979E-2,8.792799711E-2,1.266060855E-1
3.546156966E0,1.233809963E-1,6.818000227E-2,1.024610028E-1,1.742688728E-1
3.551168122E0,1.392000020E-1,7.992900163E-2,9.309700131E-2,1.855595255E-1
3.556179514E0,1.149920002E-1,9.394499660E-2,8.365499973E-2,1.704317502E-1
3.561190824E0,9.854099900E-2,9.844399989E-2,1.028830037E-1,1.731659956E-1
3.566202207E0,6.852500141E-2,7.748500258E-2,9.582699835E-2,1.410050178E-1
3.571213343E0,2.295799926E-2,5.743899941E-2,8.638200164E-2,1.062457462E-1
3.576224649E0,-2.831799909E-2,2.657699957E-2,8.651699871E-2,9.483373368E-2
3.581236034E0,-7.335700095E-2,-1.478399988E-2,8.431100100E-2,1.127304800E-1
3.586247180E0,-1.099470034E-1,-4.331900179E-2,8.927199990E-2,1.481025639E-1
3.591258485E0,-1.405459940E-1,-6.644999981E-2,9.658999741E-2,1.830256991E-1
3.596269631E0,-1.400450021E-1,-7.963299751E-2,7.285500318E-2,1.768102610E-1
3.601281014E0,-1.325220019E-1,-9.495999664E-2,7.788500190E-2,1.806808110E-1
3.606292314E0,-1.065180004E-1,-8.447200060E-2,6.137799844E-2,1.491605242E-1
3.611303467E0,-7.890000194E-2,-6.971400231E-2,4.487900063E-2,1.144525103E-1
3.616314850E0,-5.887100101E-2,-6.238099933E-2,3.317299858E-2,9.196538300E-2
3.621326160E0,-3.222300112E-2,-3.684300184E-2,4.053900018E-2,6.355422191E-2
3.626337314E0,3.196999896E-3,6.388999987E-3,5.735800043E-2,5.780121402E-2
3.631348687E0,2.842500061E-2,3.441900015E-2,5.258600041E-2,6.897779114E-2
3.636360072E0,5.085000023E-2,5.467399955E-2,4.538099840E-2,8.737507520E-2
3.641371382E0,6.570599973E-2,6.515900046E-2,2.861599997E-2,9.685994629E-2
3.646382525E0,6.855999678E-2,7.082799822E-2,7.065999787E-3,9.882816827E-2
3.651393908E0,7.837899774E-2,5.795500055E-2,-2.416000003E-3,9.750839160E-2
3.656405218E0,9.023500234E-2,5.710300058E-2,2.500999952E-3,1.068146213E-1
3.661416372E0,8.548799902E-2,4.701599851E-2,7.451999933E-3,9.784801682E-2
3.666427677E0,7.154999673E-2,2.566899918E-2,1.963800006E-2,7.851083109E-2
3.671438814E0,3.225399926E-2,1.184299961E-2,2.459700033E-2,4.225623662E-2
3.676450197E0,-1.999299973E-2,-1.091600023E-2,4.146600142E-2,4.731076382E-2
3.681461535E0,-7.086200267E-2,-3.076699935E-2,6.544599682E-2,1.012482601E-1
3.686472689E0,-1.158659980E-1,-3.847200051E-2,6.780900061E-2,1.396534456E-1
3.691483995E0,-1.365530044E-1,-5.063600093E-2,6.539300084E-2,1.596463973E-1
3.696495380E0,-1.520909965E-1,-6.466899812E-2,6.062199920E-2,1.760362955E-1
3.701506773E0,-1.742009968E-1,-7.112400234E-2,2.952500060E-2,1.904634785E-1
3.706517929E0,-1.607760042E-1,-6.301800162E-2,-3.022000007E-2,1.753095561E-1
3.711529235E0,-1.361249983E-1,-5.920200050E-2,-7.307100296E-2,1.654516954E-1
3.716540386E0,-9.817399830E-2,-3.210100159E-2,-4.890599847E-2,1.142821287E-1
3.721551768E0,-4.506900162E-2,-1.288499963E-2,1.599700004E-2,4.952920484E-2
3.726563078E0,4.151000176E-3,1.241100021E-2,7.371599972E-2,7.486863391E-2
3.731574461E0,5.671500042E-2,3.478800133E-2,5.732199922E-2,8.782145469E-2
3.736585617E0,8.682999760E-2,5.419500172E-2,4.811900109E-2,1.131016576E-1
3.741596927E0,1.090739965E-1,8.889099956E-2,1.321049929E-1,1.930038229E-1
3.746608312E0,1.351139992E-1,9.421300143E-2,2.089219987E-1,2.660456427E-1
3.751619459E0,1.484690011E-1,8.972200006E-2,2.690280080E-1,3.201080297E-1
3.756630764E0,1.702239960E-1,8.771199733E-2,2.239809930E-1,2.946813339E-1
3.761641929E0,1.607050002E-1,8.402799815E-2,9.290900081E-2,2.037618315E-1
3.766653312E0,1.533119977E-1,9.746900201E-2,-7.875599712E-2,1.980082879E-1
3.771664622E0,6.458000094E-2,8.558200300E-2,-1.643819958E-1,1.962556911E-1
3.776675789E0,1.561900042E-2,3.454799950E-2,-1.566240042E-1,1.611477463E-1
3.781687172E0,2.160800062E-2,-3.404600173E-2,-6.967200339E-2,8.049983839E-2
3.786698492E0,5.337199941E-2,-7.133200020E-2,5.804700032E-2,1.063309871E-1
3.791709874E0,4.503700137E-2,-8.300399780E-2,1.616809964E-1,1.872397921E-1
3.796721030E0,6.901000161E-3,-8.106199652E-2,1.956840008E-1,2.119219179E-1
3.801732336E0,-1.159700006E-2,-5.151100084E-2,1.529110074E-1,1.617703613E-1
3.806743721E0,-2.507000044E-2,-8.839000016E-3,9.079600126E-2,9.460732893E-2
3.811754876E0,-5.213899910E-2,-4.244999960E-3,2.623900026E-2,5.852333199E-2
3.816766259E0,-1.059900001E-1,-1.690999954E-3,-9.754999541E-3,1.064513955E-1
3.821777569E0,-1.416900009E-1,-2.204200067E-2,-1.464499999E-2,1.441401477E-1
3.826788951E0,-2.063370049E-1,-5.323899910E-2,2.346800081E-2,2.143830629E-1
3.831800107E0,-2.712230086E-1,-1.020459980E-1,5.918499827E-2,2.957670876E-1
3.836811413E0,-3.386229873E-1,-1.493140012E-1,9.489099681E-2,3.820530065E-1
3.841822554E0,-3.898830116E-1,-1.834540069E-1,1.090580001E-1,4.444747268E-1
3.846833860E0,-4.020409882E-1,-2.094130069E-1,1.041589975E-1,4.651234894E-1
3.851845015E0,-3.925209939E-1,-2.063619941E-1,8.973599970E-2,4.524495032E-1
3.856856394E0,-3.527010083E-1,-1.913640052E-1,7.301899791E-2,4.078602185E-1
3.861867779E0,-2.881650031E-1,-1.626439989E-1,6.116700172E-2,3.365019189E-1
3.866879102E0,-2.019550055E-1,-1.136699989E-1,6.611099839E-2,2.409924418E-1
3.871890256E0,-1.064999998E-1,-5.679700151E-2,7.586500049E-2,1.425610312E-1
3.876901543E0,2.522000112E-3,8.219999727E-4,8.807700127E-2,8.811693550E-2
3.881912928E0,1.174940020E-1,5.908000097E-2,9.319899976E-2,1.611872842E-1
3.886924088E0,2.498410046E-1,1.178919971E-1,1.128109992E-1,2.984047119E-1
3.891935394E0,3.640440106E-1,1.701139957E-1,1.301359981E-1,4.223768356E-1
3.896946779E0,4.469780028E-1,2.136459947E-1,1.570769995E-1,5.197183177E-1
3.901957925E0,4.835470021E-1,2.301229984E-1,1.816280037E-1,5.654759317E-1
3.906969230E0,4.472669959E-1,2.204789966E-1,1.702030003E-1,5.269039902E-1
3.911980620E0,3.888880014E-1,1.994619966E-1,1.467269957E-1,4.610290414E-1
3.916992005E0,3.020910025E-1,1.675180048E-1,1.159590036E-1,3.643730866E-1
3.922003174E0,2.062139958E-1,1.086610034E-1,1.019060016E-1,2.543939050E-1
3.927014480E0,1.225510016E-1,7.244899869E-2,1.236369982E-1,1.885569217E-1
3.932025622E0,3.914599866E-2,3.737600148E-2,1.141460016E-1,1.263276865E-1
3.937036928E0,-2.778800018E-2,-8.142000064E-3,8.790399879E-2,9.255040855E-2
3.942048084E0,-9.488700330E-2,-8.204799891E-2,2.832400054E-2,1.285988590E-1
3.947059466E0,-1.737429947E-1,-1.254550070E-1,-9.723000228E-3,2.145230144E-1
3.952070776E0,-2.337269932E-1,-1.462630033E-1,-3.824900091E-2,2.783597664E-1
3.957082164E0,-2.753440142E-1,-1.571570039E-1,-1.901300065E-2,3.176069020E-1
3.962093319E0,-2.829799950E-1,-1.446119994E-1,2.165799960E-2,3.185268857E-1
3.967104702E0,-2.693620026E-1,-1.118040010E-1,7.176300138E-2,3.003430563E-1
3.972115997E0,-2.352059931E-1,-7.337299734E-2,1.169639975E-1,2.727380293E-1
3.977127151E0,-1.906390041E-1,-5.016100034E-2,1.095559970E-1,2.255257686E-1
3.982138533E0,-1.523640007E-1,-1.828599907E-2,6.866300106E-2,1.681183339E-1
3.987149829E0,-1.015689969E-1,8.019999601E-3,5.894200131E-2,1.177061640E-1
3.992160983E0,-6.178700179E-2,3.126899898E-2,3.011699952E-2,7.551435325E-2
3.997172288E0,-2.803499997E-2,5.154500157E-2,3.003700078E-2,6.591714364E-2
4.002183673E0,-2.284999937E-3,6.886000186E-2,4.909500107E-2,8.460047406E-2
4.007194829E0,1.336499956E-2,6.694400311E-2,6.340300292E-2,9.316685861E-2
4.012206202E0,2.376599982E-2,6.713499874E-2,8.249700069E-2,1.089847968E-1
4.017217511E0,3.847299889E-2,6.013099849E-2,1.016340032E-1,1.241989502E-1
4.022228650E0,1.999500021E-2,6.005499884E-2,1.039550006E-1,1.217088537E-1
4.027240033E0,8.878000081E-3,5.519500002E-2,9.429199994E-2,1.096188313E-1
4.032251342E0,1.423299965E-2,4.130199924E-2,5.123599991E-2,6.733172437E-2
4.037262735E0,7.570000016E-4,3.489499912E-2,3.930500150E-2,5.256536079E-2
4.042273891E0,-3.093799949E-2,1.480100024E-2,2.499599941E-2,4.243853682E-2
4.047285197E0,-5.252800137E-2,-1.387600042E-2,2.514399961E-2,5.986614261E-2
4.052296353E0,-8.280300349E-2,-5.096000060E-2,3.017099947E-2,1.018015140E-1
4.057307730E0,-1.052569970E-1,-7.992099971E-2,3.049900010E-2,1.356340320E-1
4.062319040E0,-1.294250041E-1,-9.867999703E-2,3.086400032E-2,1.656537353E-1
4.067330209E0,-1.435360014E-1,-1.261319965E-1,2.175199986E-2,1.923148818E-1
4.072341514E0,-1.430989951E-1,-1.387680024E-1,5.520000122E-3,1.994100080E-1
4.077352889E0,-1.425220072E-1,-1.462620050E-1,-8.268999867E-3,2.043855988E-1
4.082364045E0,-1.510280073E-1,-1.511050016E-1,-1.727000065E-2,2.143371956E-1
4.087375351E0,-1.334789991E-1,-1.442009956E-1,-4.734000191E-3,1.965527438E-1
4.092386735E0,-1.348419935E-1,-1.353610009E-1,2.207300067E-2,1.923335153E-1
4.097397891E0,-1.081579998E-1,-1.059380025E-1,3.444299847E-2,1.552653646E-1
4.102409255E0,-7.986900210E-2,-7.980000228E-2,4.196200147E-2,1.204487751E-1
4.107420564E0,-5.005500093E-2,-6.847199798E-2,3.752300143E-2,9.274639218E-2
4.112431703E0,-1.652199961E-2,-4.129299894E-2,2.585900016E-2,5.144682810E-2
4.117443009E0,2.534499951E-2,-2.200300060E-2,2.376299910E-2,4.112397308E-2
4.122454175E0,8.677200228E-2,5.857999902E-3,2.407399938E-2,9.023997999E-2
4.127465557E0,1.599770039E-1,4.434899986E-2,2.679100074E-2,1.681583578E-1
4.132476951E0,2.282110006E-1,6.748600304E-2,4.153899848E-2,2.415783719E-1
4.137488261E0,2.754909992E-1,8.966399729E-2,5.629999936E-2,2.951349064E-1
4.142499415E0,2.998769879E-1,9.472300112E-2,5.437999964E-2,3.191486162E-1
4.147510797E0,2.766970098E-1,7.375899702E-2,6.923899800E-2,2.946110380E-1
4.152522107E0,2.237219959E-1,5.788499862E-2,6.489200145E-2,2.400274492E-1
4.157533261E0,1.188279986E-1,2.858399972E-2,6.998600066E-2,1.408374190E-1
4.162544643E0,-6.132000126E-3,4.674000200E-3,6.525100023E-2,6.570495213E-2
4.167555953E0,-1.458230019E-1,-6.647999864E-3,4.346099868E-2,1.523069341E-1
4.172567122E0,-2.947109938E-1,-3.609000146E-2,7.162199914E-2,3.054288277E-1
4.177578428E0,-4.170739949E-1,-4.824300110E-2,8.986199647E-2,4.293638117E-1
4.182589812E0,-4.709529877E-1,-6.334400177E-2,-1.144609973E-1,4.887847165E-1
4.187600968E0,-4.514749944E-1,-4.552200064E-2,-4.549930096E-1,6.425889525E-1
4.192612274E0,-4.154410064E-1,-5.702599883E-2,-5.846070051E-1,7.194501684E-1
4.197623683E0,-3.004910052E-1,-9.642499685E-2,-4.576129913E-1,5.558797298E-1
4.202634838E0,-1.594360024E-1,-1.393930018E-1,-6.457699835E-2,2.214055928E-1
4.207646153E0,7.451999933E-3,-1.613820046E-1,4.865379930E-1,5.126586606E-1
4.212657309E0,1.800259948E-1,-1.571619958E-1,7.171080112E-1,7.558790588E-1
4.217668692E0,2.331289947E-1,-1.202870011E-1,4.428240061E-1,5.146952411E-1
4.222680001E0,2.073860019E-1,-6.898599863E-2,4.172600061E-2,2.225063616E-1
4.227691384E0,1.607850045E-1,7.915000431E-3,-2.422830015E-1,2.908874658E-1
4.232702555E0,1.201040000E-1,6.219799817E-2,-2.753010094E-1,3.067314910E-1
4.237713937E0,9.037400037E-2,9.605500102E-2,-1.363500059E-1,1.896980423E-1
4.242725247E0,5.341200158E-2,1.049219966E-1,7.880599797E-2,1.416751658E-1
4.247736401E0,7.085999940E-3,1.058939993E-1,2.218409926E-1,2.459210777E-1
4.252747769E0,-3.232700005E-2,9.467499703E-2,3.120160103E-1,3.276619915E-1
4.257759078E0,-7.258799672E-2,7.672999799E-2,2.753080130E-1,2.948745697E-1
4.262770242E0,-1.003020033E-1,9.658099711E-2,2.145469934E-1,2.557709781E-1
4.267781548E0,-7.901699841E-2,9.539200366E-2,1.228640005E-1,1.744674268E-1
4.272792933E0,-7.263100147E-2,6.713099778E-2,1.473999955E-2,9.999550402E-2
4.277804088E0,-4.078299925E-2,7.767800242E-2,-3.818900138E-2,9.568450718E-2
4.282815394E0,-4.189199954E-2,7.905100286E-2,-1.213799976E-2,9.028472582E-2
4.287826788E0,-5.397799984E-2,6.656900048E-2,3.065999970E-2,9.102248004E-2
4.292837944E0,-7.445199788E-2,5.661199987E-2,9.970399737E-2,1.367073722E-1
4.297849326E0,-1.055790037E-1,3.747700155E-2,1.328089982E-1,1.737517818E-1
4.302860636E0,-1.029959992E-1,1.891699992E-2,1.324910074E-1,1.688783461E-1
4.307871810E0,-3.319700062E-2,3.068700060E-2,1.824789941E-1,1.879955216E-1
4.312883115E0,-2.614999935E-2,-1.855199970E-2,1.704899967E-1,1.734786388E-1
4.317894500E0,5.983999930E-3,-6.155300140E-2,1.061870009E-1,1.228831127E-1
4.322905647E0,7.672700286E-2,-6.811399758E-2,5.171500146E-2,1.148955657E-1
4.327916953E0,1.270689964E-1,-7.617899776E-2,-1.208200026E-2,1.486463733E-1
4.332928094E0,1.625040025E-1,-6.953000277E-2,-2.073699981E-2,1.779662756E-1
4.337939476E0,1.672170013E-1,-5.381400138E-2,3.031799942E-2,1.782600723E-1
4.342950786E0,1.186370030E-1,-4.102800041E-2,7.396599650E-2,1.457017637E-1
4.347962168E0,4.613099992E-2,-3.142699972E-2,1.316470057E-1,1.429918164E-1
4.352973324E0,-9.710000013E-4,-1.339699980E-2,1.746650040E-1,1.751807240E-1
4.357984630E0,-3.970500082E-2,1.787099987E-2,1.384409964E-1,1.451267350E-1
4.362995991E0,-6.338699907E-2,4.125799984E-2,7.572700083E-2,1.070266923E-1
4.368007147E0,-7.469599694E-2,6.892299652E-2,2.007899992E-2,1.036003747E-1
4.373018452E0,-6.939700246E-2,9.131299704E-2,5.047000013E-3,1.148019146E-1
4.378029837E0,-6.898300350E-2,9.668099880E-2,1.630499959E-2,1.198821226E-1
4.383040993E0,-7.563900203E-2,9.481599927E-2,2.754800022E-2,1.243793579E-1
4.388052298E0,-7.071500272E-2,6.745699793E-2,2.699300088E-2,1.013887581E-1
4.393063683E0,-7.550700009E-2,2.938899957E-2,-6.845999975E-3,8.131351716E-2
4.398074844E0,-9.673400223E-2,-9.751000442E-3,-6.996000186E-3,9.747560318E-2
4.403086227E0,-1.151669994E-1,-5.006600171E-2,9.770999663E-3,1.259583848E-1
4.408097550E0,-1.263490021E-1,-8.215899765E-2,9.955000132E-3,1.510406345E-1
4.413108704E0,-1.212019995E-1,-1.039939970E-1,1.746499911E-2,1.606539831E-1
4.418119996E0,-8.624199778E-2,-1.275070012E-1,1.562300045E-2,1.547249032E-1
4.423131380E0,-3.850600123E-2,-1.432690024E-1,1.638899930E-2,1.492558826E-1
4.428142536E0,-3.419600055E-2,-1.443600059E-1,-1.903999946E-3,1.483671222E-1
4.433153933E0,-3.237599880E-2,-1.384160072E-1,3.716999898E-3,1.422006063E-1
4.438165243E0,-2.370500006E-2,-1.303279996E-1,4.540999886E-3,1.325440877E-1
4.443176625E0,-1.072499994E-2,-1.224479973E-1,-1.807000022E-3,1.229300733E-1
4.448187694E0,2.725899965E-2,-1.056220010E-1,-5.766000133E-3,1.092350993E-1
4.453198839E0,3.602699935E-2,-8.483000100E-2,6.928000133E-3,9.242332464E-2
4.458210222E0,3.959799930E-2,-6.017399952E-2,1.710999943E-2,7.403825935E-2
4.463221543E0,6.603000313E-2,-3.882500157E-2,2.004200034E-2,7.917716740E-2
4.468232699E0,7.054500282E-2,-1.576399989E-2,-2.018100023E-2,7.504914314E-2
4.473244082E0,5.392400175E-2,1.741999993E-3,1.600999944E-2,5.627746095E-2
4.478255407E0,3.761700168E-2,3.679300100E-2,9.258899838E-2,1.064964148E-1
4.483266789E0,1.937299967E-2,4.708800092E-2,1.785680056E-1,1.856855556E-1
4.488277945E0,2.002600022E-2,7.094399631E-2,1.854699999E-1,1.995825948E-1
4.493289241E0,6.858999841E-3,8.058000356E-2,1.086009964E-1,1.354044286E-1
4.498300625E0,-1.968500018E-2,6.506299973E-2,3.136999905E-3,6.804802667E-2
4.503311766E0,-5.223400146E-2,4.839299992E-2,-1.046020016E-1,1.265379472E-1
4.508323072E0,-9.544499964E-2,3.702900186E-2,-1.453530043E-1,1.777874878E-1
4.513334237E0,-8.638200164E-2,2.354599908E-2,-1.405649930E-1,1.666576777E-1
4.518345619E0,-6.140900031E-2,2.386399917E-2,-9.273300320E-2,1.137539699E-1
4.523356929E0,-5.334400013E-2,7.087000180E-3,1.487500034E-2,5.583075816E-2
4.528368327E0,-5.262900144E-2,-2.176400088E-2,9.854999930E-2,1.138226071E-1
4.533379483E0,-2.208499983E-2,-2.977599949E-2,1.726340055E-1,1.765696951E-1
4.538390865E0,2.344400063E-2,-3.356499970E-2,2.300090045E-1,2.336244262E-1
4.543401939E0,6.027400121E-2,-3.035500087E-2,2.180750072E-1,2.282785361E-1
4.548413322E0,6.092000008E-2,-2.929100022E-2,1.846709996E-1,1.966534699E-1
4.553424629E0,4.277500138E-2,-1.365299989E-2,1.082049981E-1,1.171512986E-1
4.558435809E0,4.585999995E-2,1.957000000E-3,9.397500008E-2,1.045861850E-1
4.563447192E0,5.121900141E-2,3.135799989E-2,9.162800014E-2,1.095554685E-1
4.568458497E0,4.040899873E-2,4.852100089E-2,9.397699684E-2,1.132203632E-1
4.573469651E0,7.011000067E-3,6.541699916E-2,9.857200086E-2,1.185115068E-1
4.578481033E0,-4.207999911E-3,7.282099873E-2,8.877299726E-2,1.148966934E-1
4.583492329E0,-3.064000048E-3,8.964999765E-2,6.456200033E-2,1.105204147E-1
4.588503483E0,-1.537900046E-2,9.926799685E-2,4.984600097E-2,1.121395232E-1
4.593514865E0,-1.776799932E-2,1.039770022E-1,4.465400055E-2,1.145464908E-1
4.598526174E0,-3.147999942E-2,9.461099654E-2,3.228100017E-2,1.048059827E-1
4.603537328E0,-3.312800080E-2,7.846499979E-2,5.107399821E-2,9.931149945E-2
4.608548711E0,-4.159199819E-2,6.256899983E-2,6.269899756E-2,9.785672357E-2
4.613560020E0,-5.447199941E-2,5.166300014E-2,7.672200352E-2,1.073430488E-1
4.618571408E0,-6.010000035E-2,5.710899830E-2,8.828199655E-2,1.211080453E-1
4.623582564E0,-5.852900073E-2,5.048999935E-2,1.141830012E-1,1.378863363E-1
4.628593946E0,-6.618999690E-2,4.866899922E-2,1.257019937E-1,1.501691659E-1
4.633605256E0,-7.347899675E-2,4.470999911E-2,9.894800186E-2,1.311062701E-1
4.638616410E0,-6.643199921E-2,4.118299857E-2,3.158700094E-2,8.430295676E-2
4.643627731E0,-5.256899819E-2,3.112399951E-2,-2.138999989E-3,6.112919300E-2
4.648639115E0,-2.537599951E-2,5.427000113E-3,-3.560499847E-2,4.405802535E-2
4.653650290E0,1.253299974E-2,-5.640999880E-3,-1.389500033E-2,1.954400154E-2
4.658661596E0,3.278800100E-2,-2.582900040E-2,2.710199915E-2,4.976654126E-2
4.663672737E0,3.821099922E-2,-5.940800160E-2,3.240099922E-2,7.771239197E-2
4.668684119E0,2.259100042E-2,-8.273600042E-2,4.734399915E-2,9.796455135E-2
4.673695434E0,1.671900041E-2,-9.612900019E-2,4.318999872E-2,1.067037283E-1
4.678706817E0,2.043100074E-2,-8.578199893E-2,2.943599969E-2,9.296480630E-2
4.683717987E0,-6.020000204E-3,-8.042600006E-2,3.950399905E-2,8.980616810E-2
4.688729293E0,-2.675599977E-2,-8.912400156E-2,3.279900178E-2,9.866481489E-2
4.693740444E0,-3.046900034E-2,-8.833000064E-2,4.520399868E-2,1.037976420E-1
4.698751827E0,-8.399000391E-3,-7.392700016E-2,8.145999908E-2,1.103244126E-1
4.703763121E0,-1.718199998E-2,-5.549899861E-2,1.008180007E-1,1.163599125E-1
4.708774275E0,-1.410099957E-2,-5.410699919E-2,1.249229982E-1,1.368654852E-1
4.713785658E0,-2.044799924E-2,-5.978000164E-2,1.251080036E-1,1.401562765E-1
4.718796968E0,-2.679900080E-2,-6.295900047E-2,1.133460030E-1,1.323984085E-1
4.723808121E0,-3.547099978E-2,-6.137700006E-2,9.918200225E-2,1.219114331E-1
4.728819437E0,-4.862799868E-2,-6.212399900E-2,8.021800220E-2,1.125122277E-1
4.733830822E0,-5.445000157E-2,-5.594800040E-2,7.077399641E-2,1.053752342E-1
4.738841983E0,-6.704299897E-2,-5.931999907E-2,7.565800101E-2,1.172081871E-1
4.743853288E0,-7.678599656E-2,-6.511399895E-2,9.246899933E-2,1.366983466E-1
4.748864677E0,-8.628600091E-2,-6.153700128E-2,9.965699911E-2,1.454771252E-1
4.753875833E0,-5.603700131E-2,-4.198599979E-2,9.960799664E-2,1.217568178E-1
4.758887144E0,-4.053699970E-2,-2.544900030E-2,1.114490032E-1,1.212921279E-1
4.763898528E0,-2.310100012E-2,-9.331000037E-3,9.693399817E-2,1.000845831E-1
4.768909679E0,-1.328300033E-2,-9.744999930E-3,6.573899835E-2,6.777181587E-2
4.773920985E0,7.529999712E-4,-1.932599954E-2,3.943999857E-2,4.392692516E-2
4.778932369E0,1.740000007E-4,-2.597199939E-2,6.072000135E-3,2.667291162E-2
4.783943525E0,1.794300042E-2,-3.227299824E-2,-5.640999880E-3,3.735396310E-2
4.788954831E0,3.049699962E-2,-2.919399925E-2,1.136100013E-2,4.371989137E-2
4.793966216E0,3.105000034E-2,-2.149399929E-2,9.194999933E-3,3.886698535E-2
4.798977386E0,3.385499865E-2,-1.408900041E-2,2.135000005E-2,4.243210304E-2
4.803988692E0,1.558999997E-2,1.400000019E-5,9.459000081E-3,1.823515773E-2
4.809000077E0,2.519999980E-4,-3.440000000E-4,9.475000203E-3,9.484591127E-3
4.814011228E0,-2.150600031E-2,1.315199956E-2,1.892000064E-2,3.151903498E-2
4.819022533E0,-2.844100073E-2,5.229000002E-3,4.509900138E-2,5.357380786E-2
4.824033928E0,-2.565499954E-2,2.281700075E-2,6.634700298E-2,7.470421226E-2
4.829045084E0,-2.733200043E-2,3.745000064E-2,5.397500098E-2,7.115364732E-2
4.834056466E0,-1.263900008E-2,4.478200153E-2,3.204099834E-2,5.649599595E-2
4.839067747E0,-3.094499931E-2,3.581099957E-2,-1.822000020E-3,4.736391408E-2
4.844079130E0,-4.422799870E-2,3.881200030E-2,-6.984999869E-3,5.925603311E-2
4.849090281E0,-4.093800113E-2,4.884000123E-2,2.195999958E-3,6.376588486E-2
4.854101586E0,-2.854499966E-2,5.626700073E-2,3.770200163E-2,7.349988642E-2
4.859112728E0,-7.395999972E-3,6.112800166E-2,6.845699996E-2,9.207439517E-2
4.864124034E0,-3.342099860E-2,5.412499979E-2,9.438999742E-2,1.138242082E-1
4.869135427E0,-7.734899968E-2,4.262999818E-2,9.634999931E-2,1.307038900E-1
4.874146583E0,-1.291780025E-1,1.745299995E-2,9.350600094E-2,1.604211200E-1
4.879157889E0,-1.702319980E-1,7.017000113E-3,8.345799893E-2,1.897192900E-1
4.884169050E0,-1.891530007E-1,6.206999999E-3,8.055499941E-2,2.056854211E-1
4.889180433E0,-1.841399968E-1,7.583000232E-3,1.015499979E-1,2.104220577E-1
4.894191742E0,-1.737840027E-1,-4.360000021E-4,1.249269992E-1,2.140276263E-1
4.899202901E0,-1.411930025E-1,8.937000297E-3,-5.503400043E-2,1.518027507E-1
4.904214284E0,-1.103750020E-1,1.071699988E-2,-3.711090088E-1,3.873233682E-1
4.909225593E0,-6.371399760E-2,2.948600054E-2,-4.621410072E-1,4.674432674E-1
4.914236966E0,1.306299958E-2,1.686700061E-2,-3.184669912E-1,3.191807672E-1
4.919248122E0,5.041500181E-2,-4.579100013E-2,-2.614399977E-2,7.295201727E-2
4.924259423E0,1.217290014E-1,-7.402399927E-2,3.619639874E-1,3.889928411E-1
4.929270578E0,2.111790031E-1,-6.572800130E-2,5.370680094E-1,5.808259535E-1
4.934281884E0,2.374839932E-1,-4.515999928E-2,2.528600097E-1,3.498231797E-1
4.939293250E0,1.792179942E-1,-1.896299981E-2,-8.635400236E-2,1.998391817E-1
4.944304406E0,9.005299956E-2,5.970000057E-4,-2.557739913E-1,2.711645880E-1
4.949315711E0,3.530000104E-3,-1.154000056E-3,-2.219579965E-1,2.219890646E-1
4.954327091E0,-6.390299648E-2,-1.034700032E-2,-7.350199670E-2,9.794486660E-2
4.959338476E0,-1.030410007E-1,-1.780300029E-2,9.383700043E-2,1.404983177E-1
4.964349636E0,-1.123510003E-1,-3.031999990E-2,2.036190033E-1,2.345266470E-1
4.969360942E0,-1.230539978E-1,-3.599600121E-2,2.343059927E-1,2.670904279E-1
4.974372098E0,-1.076989993E-1,-4.130100086E-2,1.765359938E-1,2.108786481E-1
4.979383481E0,-1.184910014E-1,-3.895699978E-2,9.250900149E-2,1.552922426E-1
4.984394762E0,-1.035770029E-1,-2.652399987E-2,2.536500059E-2,1.098867660E-1
4.989405916E0,-8.688999712E-2,-6.717999931E-3,1.573099941E-2,8.855770698E-2
4.994417285E0,-4.969900101E-2,1.547100022E-2,3.009999916E-2,6.012780138E-2
4.999428595E0,-2.969799936E-2,3.507399932E-2,4.925600067E-2,6.736698149E-2
5.004439747E0,5.255899951E-2,5.662500113E-2,6.611999869E-2,1.016892001E-1
5.009451053E0,1.834750026E-1,9.598399699E-2,8.784399927E-2,2.249279273E-1
5.014462429E0,2.269939929E-1,1.108300015E-1,9.521300346E-2,2.699538444E-1
5.019473585E0,2.088660002E-1,8.823399991E-2,6.918200105E-2,2.370577863E-1
5.024484986E0,2.308239937E-1,7.770500332E-2,8.389700204E-2,2.575975360E-1
5.029496296E0,1.638240069E-1,3.243900090E-2,1.130120009E-1,2.016489682E-1
5.034507679E0,8.722300082E-2,-1.148600038E-2,9.909400344E-2,1.325118923E-1
5.039518775E0,5.020600185E-2,-4.271800071E-2,9.237399697E-2,1.134831508E-1
5.044529929E0,2.553999890E-3,-7.536300272E-2,5.939200148E-2,9.598705607E-2
5.049541327E0,-5.523800105E-2,-1.094050035E-1,4.557900131E-2,1.307598444E-1
5.054552712E0,-8.572500199E-2,-1.286650002E-1,3.176400065E-2,1.578366560E-1
5.059564021E0,-9.215900302E-2,-1.337430030E-1,4.901999980E-2,1.696568097E-1
5.064575175E0,-6.125099957E-2,-1.087730005E-1,5.899599940E-2,1.380716428E-1
5.069586558E0,-3.602899984E-2,-8.509399742E-2,9.754099697E-2,1.343626560E-1
5.074597868E0,-4.888299853E-2,-7.640299946E-2,1.096440032E-1,1.422981845E-1
5.079609021E0,-5.680900067E-2,-7.498300076E-2,9.539899975E-2,1.339801557E-1
5.084620327E0,-7.366099954E-2,-6.221999973E-2,1.073239967E-1,1.442765105E-1
5.089631712E0,-1.248930022E-1,-7.988800108E-2,7.139199972E-2,1.645514277E-1
5.094642868E0,-1.837899983E-1,-9.662099928E-2,6.757999770E-3,2.077499736E-1
5.099654259E0,-2.220450044E-1,-9.629499912E-2,-1.246200036E-2,2.423468842E-1
5.104665569E0,-2.288170010E-1,-1.027190015E-1,-7.703999989E-3,2.509337857E-1
5.109676718E0,-2.329159975E-1,-1.159920022E-1,3.059500083E-2,2.619924818E-1
5.114688023E0,-2.206840068E-1,-1.104289964E-1,6.888300180E-2,2.562047268E-1
5.119699413E0,-3.247449994E-1,-1.026910022E-1,7.579500228E-2,3.489264091E-1
5.124710569E0,-1.191079989E-1,-8.796399832E-2,1.850900054E-2,1.492211899E-1
5.129721889E0,9.865800291E-2,-5.281800032E-2,1.177500002E-2,1.125246343E-1
5.134733044E0,2.281100005E-1,-3.539500013E-2,8.177299798E-2,2.448954911E-1
5.139744437E0,2.328010052E-1,-1.644599997E-2,1.205459982E-1,2.626749258E-1
5.144755747E0,2.373459935E-1,3.440999985E-2,1.159889996E-1,2.664031095E-1
5.149766915E0,2.159630060E-1,6.784199923E-2,7.061900198E-2,2.371278142E-1
5.154778297E0,1.788779944E-1,1.026609987E-1,6.089799851E-2,2.150469339E-1
5.159789607E0,1.426959932E-1,1.228170022E-1,3.670800105E-2,1.918166829E-1
5.164800795E0,9.594199806E-2,1.611060053E-1,2.181999944E-2,1.887753276E-1
5.169812177E0,4.364600033E-2,1.543319970E-1,-2.693000017E-3,1.604075774E-1
5.174823487E0,6.941000000E-3,1.595499963E-1,1.424000016E-3,1.597072527E-1
5.179834655E0,-1.255299989E-2,1.599940062E-1,7.249999908E-4,1.604873373E-1
5.184846038E0,-4.546499997E-2,1.350529939E-1,-2.142200060E-2,1.441016290E-1
5.189857352E0,-6.332899630E-2,1.112880036E-1,-6.256599724E-2,1.425134574E-1
5.194868506E0,-8.292099833E-2,1.023650020E-1,-6.300099939E-2,1.460260646E-1
5.199879812E0,-1.111759990E-1,9.570900351E-2,2.501199953E-2,1.488150404E-1
5.204891206E0,-1.385229975E-1,8.649600297E-2,1.392560005E-1,2.146215577E-1
5.209902361E0,-1.324589998E-1,7.956899703E-2,1.984550059E-1,2.515173975E-1
5.214913663E0,-1.147620007E-1,5.218800157E-2,1.549630016E-1,1.997684564E-1
5.219924819E0,-1.114379987E-1,1.249499992E-2,1.609499939E-2,1.132854871E-1
5.224936202E0,-1.382140070E-1,-3.418400139E-2,-1.487379968E-1,2.058996100E-1
5.229947566E0,-1.361149997E-1,-7.389599830E-2,-2.462159991E-1,2.908783765E-1
5.234958951E0,-1.479620039E-1,-1.169179976E-1,-2.477550060E-1,3.113601062E-1
5.239970261E0,-1.107999980E-1,-1.360879987E-1,-1.534949988E-1,2.331465154E-1
5.244981400E0,-5.849500000E-2,-1.467259973E-1,-1.858999953E-3,1.579672093E-1
5.249992706E0,1.274500042E-2,-1.352079958E-1,1.185560003E-1,1.802752406E-1
5.255003867E0,6.519299746E-2,-1.228810027E-1,2.149219960E-1,2.560104141E-1
5.260015250E0,1.204689965E-1,-7.414600253E-2,2.225729972E-1,2.637217243E-1
5.265026559E0,1.368210018E-1,-2.880599909E-2,1.631020010E-1,2.148302465E-1
5.270037708E0,1.291770041E-1,2.533099987E-2,6.521999836E-2,1.469081554E-1
5.275049014E0,8.219700307E-2,5.992599949E-2,3.657099977E-2,1.080967657E-1
5.280060394E0,3.191199899E-2,9.153000265E-2,3.164099902E-2,1.019670039E-1
5.285071549E0,3.659699857E-2,1.269830018E-1,5.766899884E-2,1.441864643E-1
5.290082855E0,1.582299918E-2,1.613450050E-1,1.002010033E-1,1.905854638E-1
5.295094245E0,5.820000079E-4,1.668010056E-1,1.091459990E-1,1.993383136E-1
5.300105401E0,-9.600000340E-5,1.672960073E-1,1.324069947E-1,2.133531709E-1
5.305116706E0,-9.337099642E-2,9.825900197E-2,9.838599712E-2,1.674896381E-1
5.310127872E0,-9.758999944E-2,7.337000221E-2,5.732800066E-2,1.348831527E-1
5.315139255E0,-9.207499772E-2,4.237499833E-2,5.472600088E-2,1.151884580E-1
5.320150544E0,-5.402399972E-2,2.173300087E-2,5.711000040E-2,8.156266314E-2
5.325161698E0,-2.178500034E-2,-1.930700056E-2,7.172500342E-2,7.740686421E-2
5.330173072E0,4.840999842E-3,-5.457700044E-2,6.981600076E-2,8.874884911E-2
5.335184382E0,3.981300071E-2,-6.797599792E-2,6.565900147E-2,1.025520151E-1
5.340195764E0,8.299700171E-2,-6.021400169E-2,6.393299997E-2,1.208373153E-1
5.345206905E0,7.134799659E-2,-6.457299739E-2,9.327500314E-2,1.340165468E-1
5.350218211E0,6.461000070E-3,-9.446600080E-2,1.034749970E-1,1.402592059E-1
5.355229586E0,-2.184600011E-2,-7.959699631E-2,1.087220013E-1,1.365042238E-1
5.360240742E0,-3.796999902E-2,-7.461299747E-2,9.475799650E-2,1.264432605E-1
5.365252019E0,-5.162600055E-2,-7.679100335E-2,8.079200238E-2,1.228391215E-1
5.370263175E0,-5.371500179E-2,-6.738100201E-2,6.439799815E-2,1.075760336E-1
5.375274452E0,-4.452300072E-2,-4.693999887E-2,7.900500298E-2,1.021148940E-1
5.380285836E0,-8.936200291E-2,-7.158099860E-2,7.924500108E-2,1.392450255E-1
5.385296997E0,-1.211979985E-1,-6.547000259E-2,6.977800280E-2,1.544158210E-1
5.390308303E0,-1.149640009E-1,-3.642399982E-2,4.819199815E-2,1.298687720E-1
5.395319687E0,-1.369609982E-1,-3.149000183E-2,2.414900064E-2,1.425942126E-1
5.400330838E0,-1.283700019E-1,-4.534700140E-2,2.594999969E-3,1.361687995E-1
5.405342221E0,-1.203339994E-1,-4.231199995E-2,-1.649899967E-2,1.286187923E-1
5.410353531E0,-9.426300228E-2,-3.470100090E-2,-2.119199932E-2,1.026585306E-1
5.415364698E0,-7.863900065E-2,-2.030000091E-2,-6.746000145E-3,8.149657035E-2
5.420376004E0,-8.232399821E-2,-2.252200060E-2,5.340000149E-3,8.551606162E-2
5.425387389E0,-1.000439972E-1,-2.479000017E-2,4.132600129E-2,1.110458638E-1
5.430398778E0,-9.661599994E-2,-1.775900088E-2,5.336299911E-2,1.117928586E-1
5.435409857E0,-7.473699749E-2,-6.283000112E-3,7.496500015E-2,1.060417188E-1
5.440421240E0,-8.116800338E-2,-1.375299972E-2,9.178700298E-2,1.232973791E-1
5.445432386E0,-7.772500068E-2,-1.425999962E-2,1.133340001E-1,1.381633776E-1
5.450443692E0,-7.169400156E-2,-1.255299989E-2,1.252669990E-1,1.448772884E-1
5.455454847E0,-7.230500132E-2,-2.712599933E-2,1.061310023E-1,1.312540388E-1
5.460466201E0,-7.255099714E-2,-3.168600053E-2,7.029400021E-2,1.058720751E-1
5.465477511E0,-7.011199743E-2,-3.833900020E-2,6.320100278E-2,1.018819801E-1
5.470488681E0,-6.517600268E-2,-3.759099916E-2,5.374699831E-2,9.246477367E-2
5.475500063E0,-3.928200155E-2,-3.906900063E-2,5.393499881E-2,7.732041485E-2
5.480511387E0,-1.635700092E-2,-2.180499956E-2,4.452399909E-2,5.220532521E-2
5.485522541E0,3.145699948E-2,-2.559999935E-3,2.318499982E-2,3.916172408E-2
5.490533904E0,9.172700346E-2,2.566600032E-2,4.279999994E-3,9.534623818E-2
5.495545214E0,1.222880036E-1,3.253699839E-2,-1.451699995E-2,1.273725063E-1
5.500556368E0,1.194360033E-1,5.782400072E-2,-9.513000026E-3,1.330378559E-1
5.505567664E0,1.052469984E-1,6.853699684E-2,1.933499984E-2,1.270751464E-1
5.510579048E0,8.707000315E-2,5.784599856E-2,6.011499837E-2,1.205867241E-1
5.515590447E0,8.810000122E-2,4.261200130E-2,6.743200123E-2,1.188464036E-1
5.520601603E0,8.666700125E-2,3.005399927E-2,4.848200083E-2,1.037541150E-1
5.525612914E0,5.045299977E-2,-8.340000059E-4,4.872800037E-2,7.014712227E-2
5.530624298E0,2.684699930E-2,-2.659600042E-2,8.727099746E-2,9.510171191E-2
5.535635454E0,4.583700001E-2,-3.810099885E-2,1.114759967E-1,1.264105000E-1
5.540646746E0,6.893999875E-2,-2.410100028E-2,1.379899979E-1,1.561243772E-1
5.545657902E0,7.297799736E-2,-2.244099975E-2,1.381109953E-1,1.578101188E-1
5.550669284E0,5.614300072E-2,-2.546899952E-2,1.214459985E-1,1.361977864E-1
5.555680594E0,3.292600065E-2,-2.127099968E-2,8.797799796E-2,9.631565330E-2
5.560691772E0,2.668300085E-2,-2.161600068E-2,6.410499662E-2,7.272334296E-2
5.565703154E0,2.050600015E-2,-1.012500003E-2,4.499199986E-2,5.047070159E-2
5.570714474E0,1.204400044E-2,-2.453799918E-2,5.944199860E-2,6.542570250E-2
5.575725628E0,-3.329999978E-3,-3.147900105E-2,7.870599627E-2,8.483307289E-2
5.580736934E0,-4.388299957E-2,-1.735799946E-2,1.025839970E-1,1.129180864E-1
5.585748069E0,-9.005700052E-2,-1.501800027E-2,8.090600371E-2,1.219901025E-1
5.590759452E0,-1.347910017E-1,-7.898000069E-3,8.064900339E-2,1.572744553E-1
5.595770753E0,-1.570989937E-1,6.130000111E-3,8.984900266E-2,1.810815120E-1
5.600781907E0,-1.668850034E-1,1.256499998E-2,1.611510068E-1,2.323319405E-1
5.605793289E0,-1.825509965E-1,1.856100000E-2,2.155299932E-1,2.830592783E-1
5.610804579E0,-1.609770060E-1,3.003500029E-2,4.020899907E-2,1.686192791E-1
5.615815733E0,-1.105220020E-1,3.587700054E-2,-2.640739977E-1,2.885088359E-1
5.620827115E0,-1.124960035E-1,2.108100057E-2,-3.456749916E-1,3.641304151E-1
5.625838425E0,-5.815000087E-2,9.599999757E-4,-2.356670052E-1,2.427370625E-1
5.630849808E0,8.016999811E-3,-3.423500061E-2,-1.773099974E-2,3.937887637E-2
5.635860964E0,1.077290028E-1,-4.221399873E-2,2.816630006E-1,3.045022260E-1
5.640872279E0,1.790139973E-1,-4.600699991E-2,4.231899977E-1,4.617926260E-1
5.645883435E0,1.531440020E-1,-4.879999906E-2,2.130600065E-1,2.668877884E-1
5.650894842E0,6.973099709E-2,-4.304600134E-2,-7.836599648E-2,1.133869463E-1
5.655906152E0,9.228999726E-3,-3.204400092E-2,-2.334229946E-1,2.357928897E-1
5.660917529E0,-4.966799915E-2,-4.249199852E-2,-1.947650015E-1,2.054407114E-1
5.665928608E0,-1.020530015E-1,-5.117399991E-2,-7.020000368E-2,1.340210204E-1
5.670939991E0,-1.127870008E-1,-5.616100132E-2,9.717100114E-2,1.591136986E-1
5.675951147E0,-8.311200142E-2,-7.328700274E-2,1.783919930E-1,2.100054588E-1
5.680962529E0,-6.057300046E-2,-7.141300291E-2,1.566900015E-1,1.825394805E-1
5.685973839E0,-2.909100056E-2,-5.518100038E-2,9.435699880E-2,1.131126533E-1
5.690985008E0,-1.006099954E-2,-2.927600034E-2,5.756000057E-3,3.148713140E-2
5.695996314E0,-8.839999791E-4,-7.991000079E-3,-2.057700045E-2,2.209186470E-2
5.701007702E0,1.039700024E-2,2.242100053E-2,5.679000169E-3,2.535842900E-2
5.706018858E0,3.000000026E-3,3.610699996E-2,4.386899993E-2,5.689643751E-2
5.711030164E0,-6.341999862E-3,4.256099835E-2,7.962100208E-2,9.050504690E-2
5.716041529E0,-1.274000038E-3,4.175600037E-2,1.033900008E-1,1.115108914E-1
5.721052685E0,1.524200011E-2,5.024100095E-2,9.604600072E-2,1.094591750E-1
5.726064001E0,2.666799910E-2,4.915799946E-2,8.872599900E-2,1.048808561E-1
5.731075157E0,7.408999838E-3,5.038100109E-2,7.417800277E-2,8.997507791E-2
5.736086543E0,2.463999903E-3,5.365300179E-2,7.393299788E-2,9.138273399E-2
5.741097853E0,-2.494999906E-3,4.036900029E-2,7.850900292E-2,8.831503127E-2
5.746109007E0,1.573500037E-2,3.671000153E-2,6.161500141E-2,7.342767086E-2
5.751120381E0,4.272700101E-2,2.860599943E-2,2.569900081E-2,5.748337552E-2
5.756131690E0,3.204600140E-2,4.701000173E-3,1.859999960E-3,3.244233667E-2
5.761142858E0,-1.522199996E-2,-4.575999919E-3,3.057999909E-2,3.446426268E-2
5.766154164E0,-4.928399995E-2,-1.124100015E-2,3.052400053E-2,5.905071840E-2
5.771165538E0,-6.145500019E-2,-2.499200031E-2,7.113599777E-2,9.727099931E-2
5.776176694E0,-7.090699673E-2,-2.939499915E-2,8.297000080E-2,1.130304790E-1
5.781188077E0,-5.690699816E-2,-3.625399992E-2,1.115820035E-1,1.303967119E-1
5.786199387E0,-2.920700051E-2,-3.378999978E-2,1.090959981E-1,1.178844764E-1
5.791210541E0,-6.732000038E-3,-2.688799985E-2,1.113699973E-1,1.147674198E-1
5.796221928E0,1.756599918E-2,-2.490600012E-2,1.112710014E-1,1.153694454E-1
5.801233238E0,2.271999978E-2,-2.554900013E-2,1.350640059E-1,1.393242099E-1
5.806244387E0,2.792700008E-2,-2.638700046E-2,1.779620051E-1,1.820622597E-1
5.811255769E0,4.730800167E-2,-2.064500004E-2,2.255589962E-1,2.313895499E-1
5.816267079E0,4.332400113E-2,-2.489699982E-2,2.730410099E-1,2.775756163E-1
5.821278238E0,2.342299931E-2,-3.375099972E-2,2.510980070E-1,2.544365854E-1
5.826289621E0,-7.325999904E-3,-5.186099932E-2,2.339089960E-1,2.397011721E-1
5.831300930E0,-4.642299935E-2,-5.787000060E-2,2.070779949E-1,2.199666516E-1
5.836312289E0,-8.198399842E-2,-6.621500105E-2,2.112810016E-1,2.361047733E-1
5.841323368E0,-1.001349986E-1,-8.153100312E-2,2.370100021E-1,2.699038042E-1
5.846334750E0,-1.059919968E-1,-8.960200101E-2,2.483720034E-1,2.845197253E-1
5.851345895E0,-9.528700262E-2,-8.805400133E-2,2.286500037E-1,2.628953103E-1
5.856357201E0,-9.886500239E-2,-8.403199911E-2,1.778320074E-1,2.201360680E-1
5.861368343E0,-1.002520025E-1,-8.662900329E-2,9.362699836E-2,1.622376745E-1
5.866379725E0,-9.956700355E-2,-7.487100363E-2,4.773499817E-2,1.334087157E-1
5.871391049E0,-1.179099977E-1,-8.169800043E-2,4.323000088E-3,1.435131324E-1
5.876402203E0,-1.244470030E-1,-7.657399774E-2,-2.232499979E-2,1.478142053E-1
5.881413562E0,-1.217719987E-1,-1.153469980E-1,-6.064699963E-2,1.783575291E-1
5.886424871E0,-6.152199954E-2,-1.133169979E-1,-8.443100005E-2,1.541242752E-1
5.891436020E0,3.830400109E-2,-4.234999884E-3,-1.013009995E-1,1.083836899E-1
5.896447326E0,1.161260009E-1,1.040680036E-1,-9.935999662E-2,1.848994494E-1
5.901458731E0,1.309169978E-1,1.697860062E-1,-1.144270003E-1,2.430228109E-1
5.906470115E0,1.427620053E-1,2.291409969E-1,-1.344970018E-1,3.016223303E-1
5.911481194E0,1.472620070E-1,2.497850060E-1,-1.474390030E-1,3.252951084E-1
5.916492591E0,9.583099931E-2,2.092379928E-1,-6.937900186E-2,2.403696402E-1
5.921503747E0,6.665900350E-2,1.648280025E-1,2.792800032E-2,1.799768495E-1
5.926515129E0,5.226000026E-2,1.310030073E-1,5.837599933E-2,1.526455137E-1
5.931526434E0,2.461499907E-2,1.033150032E-1,1.717800088E-2,1.075870428E-1
5.936537588E0,-1.349799987E-2,7.522399724E-2,-8.840899915E-2,1.168631545E-1
5.941548970E0,-3.860900179E-2,6.781800091E-2,-2.273229957E-1,2.403449201E-1
5.946560280E0,-3.964700177E-2,2.879299968E-2,-2.941530049E-1,2.982061566E-1
5.951571425E0,-4.777500033E-2,1.393899973E-2,-2.580539882E-1,2.628090699E-1
5.956582808E0,-6.053299829E-2,-6.225000136E-3,-1.359069943E-1,1.489083800E-1
5.961594131E0,-4.059400037E-2,-2.478699945E-2,5.249999813E-4,4.756620473E-2
5.966605285E0,-3.291499987E-2,-4.382799938E-2,5.314999819E-2,7.634928326E-2
5.971616591E0,-3.254399821E-2,-6.048600003E-2,8.185300231E-2,1.068530861E-1
5.976627962E0,-3.934299946E-2,-6.970000267E-2,7.231300324E-2,1.078662710E-1
5.981639117E0,-5.093799904E-2,-6.687200069E-2,4.125100002E-2,9.363860969E-2
5.986650423E0,-5.087399855E-2,-5.704899877E-2,4.368000105E-2,8.803802861E-2
5.991661808E0,-2.323799953E-2,-3.820500150E-2,5.088699982E-2,6.774299604E-2
5.996672964E0,-1.402999973E-3,-3.625300154E-2,6.532199681E-2,7.472089264E-2
6.001684269E0,1.730100065E-2,-2.744399942E-2,6.061600149E-2,6.875170808E-2
6.006695439E0,1.677799970E-2,-2.599300072E-2,7.503099740E-2,8.115902864E-2
6.011706745E0,-6.932000164E-3,-3.638700023E-2,8.941199630E-2,9.678104926E-2
6.016718134E0,-3.681800142E-2,-5.778500065E-2,7.516299933E-2,1.017061847E-1
6.021729290E0,-4.708899930E-2,-6.451900303E-2,5.614199862E-2,9.763196002E-2
6.026740673E0,-5.005199835E-2,-4.998200014E-2,4.664300010E-2,8.472881644E-2
6.031751983E0,-4.125399888E-2,-3.568999842E-2,4.668899998E-2,7.180202734E-2
6.036763365E0,-3.945900127E-2,-1.473900024E-2,6.338699907E-2,7.610625835E-2
6.041774521E0,-4.438599944E-2,1.498600002E-2,5.838600174E-2,7.485734661E-2
6.046785837E0,-3.496599942E-2,2.778100036E-2,6.771399826E-2,8.111467596E-2
6.051797221E0,-3.967300057E-2,2.858800068E-2,6.984300166E-2,8.525998850E-2
6.056808392E0,-5.581999943E-2,3.160500154E-2,1.054039970E-1,1.233886180E-1
6.061819698E0,-6.910800189E-2,2.275400050E-2,1.457339972E-1,1.628866428E-1
6.066830854E0,-8.426599950E-2,4.734000191E-3,1.645549983E-1,1.849365212E-1
6.071842226E0,-5.015400052E-2,-5.874000024E-3,1.547710001E-1,1.628004611E-1
6.076853536E0,-4.508600011E-2,-3.246999905E-2,1.331699938E-1,1.442958609E-1
6.081864719E0,-4.957599938E-2,-5.823799968E-2,1.069170013E-1,1.314560363E-1
6.086876025E0,4.099600017E-2,-4.131500050E-2,7.364500314E-2,9.386792735E-2
6.091887181E0,-5.946899951E-2,-9.924300015E-2,6.677000225E-2,1.335813167E-1
6.096898582E0,-9.424799681E-2,-1.159799993E-1,4.315099865E-2,1.555508079E-1
6.101909892E0,-6.065300107E-2,-1.019499972E-1,2.433699928E-2,1.210986293E-1
6.106921051E0,-3.272800148E-2,-9.542299807E-2,2.228499949E-2,1.033116249E-1
6.111932433E0,-1.498600002E-2,-8.696199954E-2,3.456100076E-2,9.477041909E-2
6.116943743E0,9.073999710E-3,-7.197300345E-2,4.679400101E-2,8.632571591E-2
6.121954883E0,9.193000384E-3,-6.451000273E-2,5.657900125E-2,8.629736433E-2
6.126966266E0,4.177699983E-2,-4.818600044E-2,7.350400090E-2,9.731416393E-2
6.131977575E0,5.722900108E-2,-2.318800054E-2,9.031199664E-2,1.094033760E-1
6.136988714E0,5.838799849E-2,-6.008000113E-3,1.046200022E-1,1.199608240E-1
6.142000097E0,6.184000149E-2,2.715699933E-2,8.291999996E-2,1.069458498E-1
6.147011417E0,6.289999932E-2,4.100900143E-2,4.444399849E-2,8.725489737E-2
6.152022570E0,2.673400007E-2,5.474200100E-2,1.304799970E-2,6.230283885E-2
6.157033967E0,-3.587000072E-3,5.663000047E-2,5.520999897E-3,5.701144589E-2
6.162045277E0,-1.907199994E-2,4.478900135E-2,-9.116999805E-3,4.952691701E-2
6.167056431E0,-2.475699969E-2,3.566899896E-2,-1.893199980E-2,4.736673027E-2
6.172067813E0,-2.547900006E-2,1.963000000E-2,1.674400084E-2,3.626124526E-2
6.177078892E0,-5.862800032E-2,1.591000007E-3,3.804599866E-2,6.990902457E-2
6.182090289E0,-7.452700287E-2,-9.251000360E-3,6.649299711E-2,1.003054028E-1
6.187101596E0,-8.525100350E-2,-2.220300026E-2,6.384599954E-2,1.087980628E-1
6.192112752E0,-5.625699833E-2,-1.400000043E-2,6.360600144E-2,8.606145067E-2
6.197124131E0,-2.125100046E-2,-1.054699998E-2,2.995800041E-2,3.821421225E-2
6.202135441E0,2.663199976E-2,6.715000141E-3,4.180200025E-2,5.001761553E-2
6.207146808E0,3.819800168E-2,1.893500052E-2,2.731600031E-2,5.063383701E-2
6.212157964E0,9.723999538E-3,2.387000062E-2,1.755000092E-2,3.118229672E-2
6.217169270E0,-2.027500048E-2,2.875199914E-2,2.446099930E-2,4.284966261E-2
6.222180640E0,-4.247400165E-2,4.048300162E-2,2.170100063E-2,6.256075179E-2
6.227191796E0,-4.777700081E-2,3.109700046E-2,7.031999994E-3,5.743791665E-2
6.232203179E0,-5.048000067E-2,2.903000079E-2,3.065600060E-2,6.580852366E-2
6.237214508E0,-4.143999889E-2,3.866099939E-2,2.554200031E-2,6.216381714E-2
6.242225662E0,-1.409900002E-2,3.659100085E-2,2.053499967E-2,4.426476428E-2
6.247236976E0,7.844000123E-3,4.153100029E-2,2.272699960E-2,4.798821557E-2
6.252248132E0,-3.174999962E-3,3.231399879E-2,2.730300091E-2,4.242321300E-2
6.257259515E0,-2.302699909E-2,2.333099954E-2,2.468100004E-2,4.103327905E-2
6.262270824E0,-2.351599932E-2,5.313999951E-3,2.691099979E-2,3.613091099E-2
6.267281978E0,-3.759599850E-2,-5.169000011E-3,3.392500058E-2,5.090268488E-2
6.272293284E0,-4.604500160E-2,-1.795399934E-2,7.199499756E-2,8.732564307E-2
6.277304669E0,-7.919599861E-2,-1.900600083E-2,1.194759980E-1,1.445951187E-1
6.282315805E0,-9.438499808E-2,-3.184400126E-2,1.525350064E-1,1.821798465E-1
6.287327111E0,-9.901300073E-2,-2.138699964E-2,1.830279976E-1,2.091894500E-1
6.292338496E0,-9.355799854E-2,-6.876999978E-3,1.942249984E-1,2.156936304E-1
6.297349647E0,-9.494899958E-2,-2.209999948E-4,2.029030025E-1,2.240200656E-1
6.302360952E0,-9.175500274E-2,-5.565000232E-3,1.733099967E-1,1.961792668E-1
6.307372108E0,-9.817499667E-2,-2.033899911E-2,1.676740050E-1,1.953626802E-1
6.312383414E0,-9.088499844E-2,-2.091399953E-2,1.333499998E-1,1.627258454E-1
6.317394799E0,-7.497499883E-2,-4.255999997E-2,1.015639976E-1,1.332210556E-1
6.322405954E0,-8.085100353E-2,-7.068499923E-2,8.905100077E-2,1.395110556E-1
6.327417337E0,-8.008000255E-2,-1.190349981E-1,5.285099894E-2,1.528900444E-1
6.332428647E0,-7.986900210E-2,-1.547929943E-1,5.507799983E-2,1.826841937E-1
6.337439801E0,-7.058800012E-2,-1.715199947E-1,1.027880013E-1,2.120545863E-1
6.342451198E0,-5.202399939E-2,-1.603920013E-1,1.575659961E-1,2.307794048E-1
6.347462508E0,-2.838299982E-2,-1.351830065E-1,3.520400077E-2,1.425459982E-1
6.352473647E0,1.894100010E-2,-1.229759976E-1,-2.807539999E-1,3.070906478E-1
6.357485029E0,2.099799924E-2,-8.902399987E-2,-4.626919925E-1,4.716461263E-1
6.362496315E0,7.814000361E-3,-7.517199963E-2,-3.647440076E-1,3.724917170E-1
6.367507469E0,4.599300027E-2,-6.294500083E-2,-1.854269952E-1,2.011482034E-1
6.372518775E0,1.065469980E-1,-4.513100162E-2,3.939199820E-2,1.222325637E-1
6.377530145E0,1.744389981E-1,-2.570099942E-2,1.996520013E-1,2.663652136E-1
6.382541301E0,1.897509992E-1,2.178899944E-2,1.564189941E-1,2.468746725E-1
6.387552607E0,1.326300055E-1,6.709700078E-2,-5.440200120E-2,1.582791951E-1
6.392563777E0,6.073300168E-2,1.029739976E-1,-1.887719929E-1,2.234435208E-1
6.397575159E0,2.296000021E-3,1.058169976E-1,-2.226759940E-1,2.465504146E-1
6.402586488E0,-5.438200012E-2,9.458400309E-2,-1.729149967E-1,2.044581416E-1
6.407597642E0,-1.207479984E-1,6.668800116E-2,-3.237999976E-2,1.416892127E-1
6.412609025E0,-1.870809942E-1,2.254199982E-2,8.411899954E-2,2.063575689E-1
6.417620334E0,-2.254029959E-1,-2.599999971E-5,1.526439935E-1,2.722254580E-1
6.422631488E0,-2.319950014E-1,-1.528299972E-2,1.613239944E-1,2.829853034E-1
6.427642785E0,-2.103579938E-1,-2.306200005E-2,1.341940016E-1,2.505800700E-1
6.432654169E0,-1.196120009E-1,-1.876400039E-2,1.144590005E-1,1.666132686E-1
6.437665554E0,-1.780500077E-2,-4.972000141E-3,9.734799713E-2,9.908769542E-2
6.442676705E0,8.316600323E-2,1.796199940E-2,1.091270000E-1,1.383760082E-1
6.447687782E0,1.462160051E-1,2.888900042E-2,1.162670031E-1,1.890283325E-1
6.452699159E0,1.656740010E-1,2.817299962E-2,1.115339994E-1,2.016963697E-1
6.457710544E0,1.265680045E-1,3.482000157E-2,9.477499872E-2,1.619079759E-1
6.462721839E0,1.048709974E-1,3.453100100E-2,1.138980016E-1,1.586287203E-1
6.467732993E0,9.546899796E-2,4.122800007E-2,1.281860024E-1,1.650628025E-1
6.472744298E0,7.937499881E-2,5.247699842E-2,1.495829970E-1,1.772831035E-1
6.477755450E0,5.226299912E-2,6.365899742E-2,1.469720006E-1,1.684774703E-1
6.482766833E0,2.125299908E-2,6.557899714E-2,1.204089969E-1,1.387466085E-1
6.487778143E0,4.889999982E-4,4.438599944E-2,1.082720011E-1,1.170178717E-1
6.492789525E0,-8.000000380E-3,3.803199902E-2,9.857399762E-2,1.059587937E-1
6.497800681E0,-1.594699919E-2,3.434300050E-2,9.126699716E-2,9.880998551E-2
6.502811986E0,-7.110999897E-3,2.871100046E-2,5.530799925E-2,6.272051218E-2
6.507823142E0,-1.004699990E-2,4.190500081E-2,6.714600325E-2,7.978444116E-2
6.512834438E0,-2.428399958E-2,2.913700044E-2,7.659099996E-2,8.546846615E-2
6.517845823E0,-3.796099871E-2,1.904500090E-2,7.167699933E-2,8.331471488E-2
6.522856979E0,-4.190599918E-2,2.558800019E-2,5.476899818E-2,7.355611248E-2
6.527868299E0,-4.561899975E-2,2.036600001E-2,3.547900170E-2,6.127500842E-2
6.532879683E0,-3.298500180E-2,1.757499948E-2,4.733299837E-2,6.031006288E-2
6.537890839E0,-2.303699963E-2,1.014299970E-2,4.008900002E-2,4.733615655E-2
6.542902140E0,2.730000066E-3,-4.124999978E-3,3.057299927E-2,3.097057974E-2
6.547913296E0,2.074299939E-2,-2.272200026E-2,4.031199962E-2,5.071112928E-2
6.552924669E0,5.917900056E-2,-8.363000117E-3,4.766599834E-2,7.644698343E-2
6.557935979E0,4.532900080E-2,-1.082799956E-2,5.258899927E-2,7.026782146E-2
6.562947371E0,8.600000292E-3,-2.480800077E-2,4.792299867E-2,5.464440235E-2
6.567958526E0,-1.317100041E-2,-3.384799883E-2,4.801899940E-2,6.020786144E-2
6.572969861E0,-2.735899948E-2,-4.501200095E-2,3.615799919E-2,6.389049997E-2
6.577981017E0,-2.266499959E-2,-4.657100141E-2,3.867899999E-2,6.464228816E-2
6.582992395E0,-6.678999867E-3,-3.888199851E-2,4.359799996E-2,5.879799697E-2
6.588003704E0,-2.938000020E-3,-3.841999918E-2,5.092599988E-2,6.386067370E-2
6.593014844E0,-6.403999869E-3,-4.493400082E-2,4.871400073E-2,6.658175059E-2
6.598026227E0,4.112000111E-3,-3.711099923E-2,2.738600038E-2,4.630472789E-2
6.603037550E0,1.214300003E-2,-2.940599993E-2,4.194200039E-2,5.264310665E-2
6.608048704E0,3.772000084E-3,-1.489899959E-2,5.641600117E-2,5.847198784E-2
6.613060111E0,-4.246999975E-3,-1.014799997E-2,6.844100356E-2,6.931947692E-2
6.618071421E0,-1.430699974E-2,-1.008700021E-2,6.131000072E-2,6.376012863E-2
6.623082570E0,-1.480199955E-2,-1.219299994E-2,5.181900039E-2,5.525375318E-2
6.628093952E0,-1.757000014E-2,-1.185499970E-2,6.625600159E-2,6.956366630E-2
6.633105262E0,-2.490499988E-2,-2.320500091E-2,6.635800004E-2,7.457959007E-2
6.638116629E0,-2.736599930E-2,-2.025100030E-2,4.490900040E-2,5.635440752E-2
6.643127708E0,-2.007999923E-3,-1.031900011E-2,4.360000137E-3,1.138083600E-2
6.648139105E0,6.399999838E-3,-4.930000287E-4,-4.097500071E-2,4.147473605E-2
6.653150261E0,-1.336800028E-2,-4.469999985E-4,-9.810999967E-3,1.658791611E-2
6.658161644E0,-4.665900022E-2,-3.377000103E-3,1.025599986E-1,1.127254175E-1
6.663172953E0,-5.125999823E-2,3.619999916E-4,1.669999957E-1,1.746903461E-1
6.668184107E0,-2.789600007E-2,-9.770000353E-3,1.502140015E-1,1.530943695E-1
6.673195428E0,-4.209699854E-2,-3.055199981E-2,6.177400053E-2,8.075648036E-2
6.678206584E0,-7.659800351E-2,-5.908599868E-2,-5.282099918E-2,1.102200859E-1
6.683217879E0,-1.195179969E-1,-7.238099724E-2,-1.219120026E-1,1.854348854E-1
6.688229264E0,-1.335839927E-1,-8.765999973E-2,-1.311320066E-1,2.066992062E-1
6.693240420E0,-1.033840030E-1,-8.915899694E-2,-6.376499683E-2,1.506769844E-1
6.698251726E0,-7.175800204E-2,-8.669299632E-2,2.748700045E-2,1.158465436E-1
6.703263110E0,-4.796500131E-2,-9.865199775E-2,6.374499947E-2,1.268711274E-1
6.708274261E0,-6.655000150E-2,-1.035490036E-1,6.882199645E-2,1.410239910E-1
6.713285567E0,-9.156099707E-2,-1.128240004E-1,3.083099984E-2,1.485369375E-1
6.718296966E0,-7.426799834E-2,-1.032309979E-1,2.430999884E-3,1.271938846E-1
6.723308122E0,-5.061500147E-2,-8.006999642E-2,1.944500022E-2,9.670155497E-2
6.728319428E0,-2.309999987E-2,-6.451900303E-2,1.014600042E-2,6.927664160E-2
6.733330593E0,-7.953999564E-3,-3.098700009E-2,4.138400033E-2,5.230770275E-2
6.738341898E0,1.044740006E-1,-1.142899971E-2,-9.072520137E-1,9.133190325E-1
6.743353283E0,-8.147200197E-2,3.882300109E-2,-5.500500202E-1,5.574046441E-1
6.748364425E0,3.823700175E-2,1.020800024E-1,4.836690128E-1,4.958004731E-1
6.753375731E0,1.357489973E-1,1.288200021E-1,6.533460021E-1,6.796200274E-1
6.758386872E0,1.051980034E-1,1.158159971E-1,2.607379854E-1,3.040793681E-1
6.763398254E0,2.486599982E-2,1.020329967E-1,-2.896299958E-2,1.089399179E-1
6.768409564E0,-6.489899755E-2,1.009609997E-1,-8.903799951E-2,1.494415227E-1
6.773420946E0,-1.153130010E-1,1.067650020E-1,6.291999947E-3,1.572750556E-1
6.778432102E0,-1.504150033E-1,7.942699641E-2,1.398890018E-1,2.202322724E-1
6.783443408E0,-1.492570043E-1,5.465200171E-2,2.375880033E-1,2.858540780E-1
6.788454808E0,-1.569029987E-1,2.079099976E-2,2.778699994E-1,3.197851673E-1
6.793465964E0,-1.571159959E-1,6.037000101E-3,2.630909979E-1,3.064942980E-1
6.798477269E0,-1.155240014E-1,-6.426000036E-3,2.436130047E-1,2.696931301E-1
6.803488415E0,-6.837599725E-2,-2.347500063E-2,2.266860008E-1,2.379346457E-1
6.808499721E0,1.432500035E-2,-2.193200029E-2,2.362149954E-1,2.376630857E-1
6.813511105E0,1.060839966E-1,-8.399999933E-5,2.625409961E-1,2.831635499E-1
6.818522252E0,1.347170025E-1,2.506300062E-2,3.317950070E-1,3.589773690E-1
6.823533635E0,1.463000029E-1,4.634400085E-2,3.865050077E-1,4.158576418E-1
6.828544945E0,1.782460064E-1,7.570400089E-2,3.573429883E-1,4.064440254E-1
6.833556331E0,1.837159991E-1,9.469699860E-2,2.874090075E-1,3.540099257E-1
6.838567487E0,1.306979954E-1,1.130890027E-1,2.077150047E-1,2.702158613E-1
6.843578809E0,7.441300154E-2,1.238550022E-1,1.469859928E-1,2.061121987E-1
6.848589965E0,1.259090006E-1,2.186750025E-1,-6.938099861E-2,2.616974515E-1
6.853601270E0,7.105799764E-2,1.592549980E-1,-3.427520096E-1,3.845651226E-1
6.858612645E0,-5.385699868E-2,7.490599900E-2,-3.263849914E-1,3.391734772E-1
6.863623801E0,-1.121800020E-1,2.335200086E-2,-1.544049978E-1,1.922773314E-1
6.868635173E0,-1.246059984E-1,-2.036299929E-2,4.873900115E-2,1.353395611E-1
6.873646483E0,-1.156670004E-1,-6.109999865E-2,1.706240028E-1,2.149991050E-1
6.878657637E0,-9.520500153E-2,-8.688700199E-2,1.562329978E-1,2.025391148E-1
