"Time (s)","Linear Acceleration x (m/s^2)","Linear Acceleration y (m/s^2)","Linear Acceleration z (m/s^2)","Absolute acceleration (m/s^2)"
2.499865400E-2,2.969459891E-1,-8.265800029E-2,-1.361380070E-1,3.369611586E-1
3.000942300E-2,3.750190139E-1,2.170499973E-2,-1.380899996E-1,4.002239570E-1
3.502019200E-2,4.356169999E-1,1.920100003E-1,-1.017509997E-1,4.868092817E-1
4.003103800E-2,5.511810184E-1,3.819540143E-1,-4.879799858E-2,6.723619774E-1
4.504203800E-2,7.124159932E-1,5.846059918E-1,9.410999715E-2,9.263678560E-1
5.005281000E-2,9.064480066E-1,7.483649850E-1,2.879689932E-1,1.210216625E0
5.506366900E-2,1.107337952E0,8.527979851E-1,4.990760088E-1,1.484095214E0
6.007444000E-2,1.241166949E0,8.660029769E-1,7.086099982E-1,1.671102834E0
6.508520900E-2,1.321053982E0,8.021960258E-1,1.009232998E0,1.845874679E0
7.009596400E-2,1.476459026E0,6.521340013E-1,1.215283990E0,2.020426982E0
7.510696200E-2,1.326853991E0,4.978890121E-1,1.843708992E0,2.325445727E0
8.011772400E-2,9.997119904E-1,2.715120018E-1,2.266629934E0,2.492138457E0
8.512856800E-2,6.180520058E-1,-7.120700181E-2,2.286268950E0,2.369405923E0
9.013932900E-2,2.405869961E-1,-4.181810021E-1,2.101006985E0,2.155687316E0
9.515009900E-2,-5.942799896E-2,-6.950259805E-1,1.880293965E0,2.005516940E0
1.001610920E-1,-2.897959948E-1,-8.725860119E-1,1.594964981E0,1.841005529E0
1.051718630E-1,-4.041129947E-1,-9.610040188E-1,9.118710160E-1,1.385043244E0
1.101826830E-1,-4.913249910E-1,-1.056110024E0,1.087013960E0,1.593225652E0
1.151934540E-1,-4.884060025E-1,-1.067684054E0,1.122009993E0,1.624006184E0
1.202042230E-1,-4.100590050E-1,-1.025560021E0,1.134557962E0,1.583396197E0
1.252152210E-1,-3.133639991E-1,-9.779229760E-1,1.086578965E0,1.495053240E0
1.302260700E-1,-2.245209962E-1,-9.690449834E-1,1.034873009E0,1.435416317E0
1.352368240E-1,-1.343069971E-1,-9.391319752E-1,9.889039993E-1,1.370378910E0
1.402475930E-1,-2.243399993E-2,-8.575839996E-1,9.940630198E-1,1.313055554E0
1.452583570E-1,7.309400290E-2,-7.676339746E-1,9.882580042E-1,1.253498518E0
1.502693550E-1,1.437740028E-1,-6.974250078E-1,9.714279771E-1,1.204468729E0
1.552801220E-1,2.304569930E-1,-6.190549731E-1,8.913249969E-1,1.109414141E0
1.602908910E-1,3.262610137E-1,-5.272899866E-1,6.316499710E-1,8.851342638E-1
1.653017200E-1,3.908630013E-1,-4.277620018E-1,2.933140099E-1,6.494515566E-1
1.703124910E-1,3.981539905E-1,-3.343630135E-1,-2.341799997E-2,5.204552120E-1
1.753234850E-1,3.573899865E-1,-2.270070016E-1,-2.377510071E-1,4.855773086E-1
1.803342560E-1,2.937160134E-1,-9.728299826E-2,-3.002839983E-1,4.311653487E-1
1.853450260E-1,1.860650033E-1,-2.179200016E-2,-2.862280011E-1,3.420841203E-1
1.903558790E-1,9.537500143E-2,2.725300007E-2,-1.893420070E-1,2.137510527E-1
1.953666500E-1,9.034900367E-2,1.094119996E-1,-2.911000047E-3,1.419239305E-1
2.003774290E-1,1.754239947E-1,2.100179940E-1,2.440190017E-1,3.666420720E-1
2.053884270E-1,2.748909891E-1,2.437880039E-1,4.507899880E-1,5.815576154E-1
2.103992760E-1,3.520269990E-1,2.284460068E-1,6.532239914E-1,7.764097945E-1
2.154100540E-1,3.733739853E-1,1.415150017E-1,8.463870287E-1,9.358448755E-1
2.204208230E-1,3.643090129E-1,2.167100087E-2,1.032817960E0,1.095401126E0
2.254315920E-1,3.811169863E-1,-1.990340054E-1,1.238631964E0,1.311134560E0
2.304425710E-1,1.990399957E-1,-3.577220142E-1,1.382812977E0,1.442135114E0
2.354533430E-1,-4.078999907E-2,-4.958539903E-1,1.520707965E0,1.600027412E0
2.404641120E-1,-1.927479953E-1,-6.551129818E-1,1.655061960E0,1.790406351E0
2.454749560E-1,-2.973319888E-1,-8.149560094E-1,1.716909051E0,1.923625821E0
2.504857270E-1,-3.945429921E-1,-9.878450036E-1,1.641922951E0,1.956377494E0
2.554967250E-1,-4.674090147E-1,-1.198063970E0,1.413506031E0,1.910975605E0
2.605075830E-1,-5.624110103E-1,-1.343225002E0,1.093693972E0,1.821188089E0
2.655183530E-1,-6.302300096E-1,-1.395426035E0,7.030419707E-1,1.684835807E0
2.705291220E-1,-6.562399864E-1,-1.361719966E0,3.042779863E-1,1.541919997E0
2.755398910E-1,-6.312519908E-1,-1.225808024E0,-9.719599783E-2,1.382219755E0
2.805508890E-1,-5.373529792E-1,-1.018095970E0,-4.367780089E-1,1.231276840E0
2.855616640E-1,-4.449009895E-1,-7.637979984E-1,-7.572600245E-1,1.163944594E0
2.905724340E-1,-3.387709856E-1,-5.038350224E-1,-1.050971985E0,1.213737049E0
2.955832830E-1,-2.212460041E-1,-2.208019942E-1,-1.265795946E0,1.303818504E0
3.005940540E-1,-4.901500046E-2,6.464300305E-2,-1.435534954E0,1.437825369E0
3.056048230E-1,1.496080011E-1,3.199479878E-1,-1.548531055E0,1.588300255E0
3.106158400E-1,3.394410014E-1,5.459330082E-1,-1.602609038E0,1.726736451E0
3.156266120E-1,4.877460003E-1,7.291820049E-1,-1.617179990E0,1.839802619E0
3.206374560E-1,6.092849970E-1,8.582850099E-1,-1.580451965E0,1.898870659E0
3.256482270E-1,6.756749749E-1,8.977310061E-1,-1.526031971E0,1.895054408E0
3.306592250E-1,6.956149936E-1,8.411449790E-1,-1.393759966E0,1.770302781E0
3.356699960E-1,7.009230256E-1,7.362740040E-1,-1.231456995E0,1.596834001E0
3.406807650E-1,6.808199883E-1,5.772389770E-1,-1.061151028E0,1.386637010E0
3.456916240E-1,6.319810152E-1,3.828270137E-1,-9.424229860E-1,1.197546496E0
3.507023950E-1,5.789049864E-1,1.391589940E-1,-8.730829954E-1,1.056773451E0
3.557134080E-1,4.245150089E-1,-9.503400326E-2,-8.570929766E-1,9.611726302E-1
3.607241790E-1,2.110110074E-1,-3.222729862E-1,-8.033300042E-1,8.909122395E-1
3.657349520E-1,-1.118599996E-2,-5.103359818E-1,-7.303810120E-1,8.910804473E-1
3.707457960E-1,-1.864670068E-1,-6.772890091E-1,-6.713650227E-1,9.717105228E-1
3.757565730E-1,-3.580990136E-1,-8.342270255E-1,-6.806589961E-1,1.134665723E0
3.807673420E-1,-4.965850115E-1,-9.492200017E-1,-6.787719727E-1,1.268206086E0
3.857783400E-1,-5.670269728E-1,-1.000381947E0,-6.317099929E-1,1.311998911E0
3.907890970E-1,-5.772250295E-1,-9.666140079E-1,-5.410619974E-1,1.249111468E0
3.957998660E-1,-5.367619991E-1,-8.991259933E-1,-3.923810124E-1,1.118259297E0
4.008106960E-1,-4.169180095E-1,-8.109549880E-1,-2.310020030E-1,9.406543173E-1
4.058214670E-1,-2.079669982E-1,-7.028620243E-1,-4.731800035E-2,7.345095579E-1
4.108324650E-1,4.908699915E-2,-5.500640273E-1,1.185429990E-1,5.648295409E-1
4.158433130E-1,2.983979881E-1,-3.607450128E-1,2.575669885E-1,5.343398517E-1
4.208540820E-1,5.295100212E-1,-1.523630023E-1,3.295069933E-1,6.420048331E-1
4.258648520E-1,7.016170025E-1,3.221200034E-2,3.225669861E-1,7.728864675E-1
4.308756210E-1,8.233259916E-1,1.960559934E-1,2.725419998E-1,8.891472222E-1
4.358863900E-1,8.819130063E-1,3.445999920E-1,2.080699950E-1,9.694394401E-1
4.408974650E-1,8.510630131E-1,5.053579807E-1,2.246170044E-1,1.014961940E0
4.459082360E-1,7.842640281E-1,6.444720030E-1,3.501890004E-1,1.073800058E0
4.509190000E-1,7.384970188E-1,7.118279934E-1,5.263730288E-1,1.152885729E0
4.559299980E-1,7.460820079E-1,6.880739927E-1,7.163770199E-1,1.242288298E0
4.609405350E-1,8.048110008E-1,5.744850039E-1,8.632150292E-1,1.312590551E0
4.659515330E-1,8.305220008E-1,3.578740060E-1,9.480699897E-1,1.310220326E0
4.709623040E-1,7.628250122E-1,8.049499989E-2,9.149150252E-1,1.193922505E0
4.759731430E-1,6.106749773E-1,-1.715690047E-1,8.106229901E-1,1.029305340E0
4.809839150E-1,3.723950088E-1,-4.296210110E-1,5.922679901E-1,8.209955102E-1
4.859946740E-1,5.902300030E-2,-6.791149974E-1,3.387860060E-1,7.612206330E-1
4.910056720E-1,-2.049160004E-1,-7.821170092E-1,1.948660016E-1,8.316672062E-1
4.960164430E-1,-3.841379881E-1,-7.983970046E-1,7.512000203E-2,8.891809633E-1
5.010272920E-1,-5.232849717E-1,-7.634270191E-1,-6.045699865E-2,9.275252147E-1
5.060380630E-1,-5.960699916E-1,-6.512150168E-1,-2.062180042E-1,9.065904799E-1
5.110490620E-1,-6.169319749E-1,-4.825760126E-1,-3.018890023E-1,8.394174404E-1
5.160598520E-1,-5.605459809E-1,-2.683500051E-1,-3.376660049E-1,7.072777763E-1
5.210706210E-1,-4.643779993E-1,-6.347800046E-2,-3.687500060E-1,5.963664559E-1
5.260814760E-1,-3.505620062E-1,1.230610013E-1,-3.738810122E-1,5.270908285E-1
5.310924760E-1,-2.378609926E-1,3.102959991E-1,-3.960849941E-1,5.565471960E-1
5.361030170E-1,-1.357530057E-1,4.701319933E-1,-4.379630089E-1,6.567073677E-1
5.411140000E-1,-8.162699640E-2,6.408190131E-1,-4.802869856E-1,8.049767467E-1
5.461247710E-1,-4.926199839E-2,8.110560179E-1,-4.921520054E-1,9.499748444E-1
5.511356060E-1,-2.242000028E-2,9.683269858E-1,-4.191690087E-1,1.055396829E0
5.561463770E-1,1.008239985E-1,1.142449975E0,-2.403900027E-1,1.171812603E0
5.611571470E-1,2.742420137E-1,1.268255949E0,-2.350400016E-2,1.297780518E0
5.661681540E-1,4.210740030E-1,1.314561963E0,2.116509974E-1,1.396485809E0
5.711789250E-1,4.970149994E-1,1.233307004E0,3.639859855E-1,1.378606497E0
5.761896940E-1,4.652630091E-1,1.035951018E0,4.138459861E-1,1.208690482E0
5.812005090E-1,3.339349926E-1,7.851729989E-1,3.564180136E-1,9.246853615E-1
5.862112800E-1,1.449050009E-1,5.194309950E-1,2.514840066E-1,5.950211958E-1
5.912220500E-1,-4.504999891E-2,2.747339904E-1,1.970559955E-1,3.410855219E-1
5.962330530E-1,-1.833530068E-1,6.930900365E-2,1.813710034E-1,2.670533729E-1
6.012438240E-1,-2.697649896E-1,-8.612400293E-2,1.928209960E-1,3.425936806E-1
6.062546730E-1,-2.827630043E-1,-1.650860012E-1,2.392860055E-1,4.055441983E-1
6.112654440E-1,-2.101289928E-1,-1.678449959E-1,2.809439898E-1,3.889160084E-1
6.162762140E-1,-1.910610050E-1,-1.882340014E-1,2.391410023E-1,3.593393464E-1
6.212872020E-1,-1.387840062E-1,-1.366409957E-1,3.248150051E-1,3.787301805E-1
6.262980500E-1,-7.489000261E-2,-5.498800054E-2,3.972310126E-1,4.079517987E-1
6.313088340E-1,-1.991399936E-2,4.395999946E-3,4.659000039E-1,4.663461223E-1
6.363198320E-1,3.666000068E-2,4.149200022E-2,4.662820101E-1,4.695577224E-1
6.413306030E-1,8.146400005E-2,5.147099867E-2,3.649600148E-1,3.774671634E-1
6.463413730E-1,7.779300213E-2,4.646499828E-2,1.954800040E-1,2.154603889E-1
6.513521420E-1,4.251600057E-2,4.106500000E-2,2.237999998E-2,6.320450085E-2
6.563629910E-1,4.512999952E-2,9.648700058E-2,-1.134240031E-1,1.556003298E-1
6.613737620E-1,1.441359967E-1,1.961030066E-1,-1.452089995E-1,2.834029433E-1
6.663847600E-1,3.506180048E-1,3.069030046E-1,-1.307770014E-1,4.839680399E-1
6.713955450E-1,5.812039971E-1,3.873220086E-1,-9.934899956E-2,7.054690981E-1
6.764063900E-1,7.436329722E-1,4.078199863E-1,-1.302289963E-1,8.580598640E-1
6.814171710E-1,7.615839839E-1,3.808569908E-1,-2.783240080E-1,8.958384148E-1
6.864279400E-1,6.484370232E-1,2.914279997E-1,-4.842770100E-1,8.601889760E-1
6.914389380E-1,4.976150095E-1,1.851229966E-1,-7.362049818E-1,9.076833131E-1
6.964497130E-1,3.415369987E-1,1.068990007E-1,-9.813550115E-1,1.044572916E0
7.014604830E-1,2.075430006E-1,7.959199697E-2,-1.118026972E0,1.139909335E0
7.064713270E-1,1.451749951E-1,1.028409973E-1,-1.112329006E0,1.126466985E0
7.114820840E-1,1.163389981E-1,1.257289946E-1,-9.656730294E-1,9.807481544E-1
7.164930820E-1,1.141360030E-1,1.521929950E-1,-7.822489738E-1,8.050485650E-1
7.215038530E-1,8.049999923E-2,1.445049942E-1,-6.004689932E-1,6.228362184E-1
7.265146870E-1,3.552100062E-2,9.533300251E-2,-4.776479900E-1,4.883622889E-1
7.315254590E-1,-3.200799972E-2,3.563600034E-2,-3.682169914E-1,3.713195246E-1
7.365362280E-1,-9.326499701E-2,-3.516799957E-2,-3.030399978E-1,3.190115799E-1
7.415469870E-1,-1.252039969E-1,-9.642399848E-2,-2.746320069E-1,3.168538583E-1
7.465579850E-1,-1.077570021E-1,-1.445270032E-1,-3.041410148E-1,3.535553465E-1
7.515687460E-1,-1.420889944E-1,-2.292039990E-1,-3.653450012E-1,4.540933003E-1
7.565795910E-1,-1.971009970E-1,-2.601380050E-1,-3.311769962E-1,4.649718137E-1
7.615903570E-1,-2.076759934E-1,-1.850229949E-1,-2.174409926E-1,3.530487391E-1
7.666011260E-1,-1.864620000E-1,-8.101999760E-2,-6.703200191E-2,2.140691634E-1
7.716121140E-1,-1.590220034E-1,-9.557999671E-3,8.628199995E-2,1.811737742E-1
7.766228850E-1,-7.381899655E-2,8.807899803E-2,2.165330052E-1,2.451401569E-1
7.816337290E-1,4.222600162E-2,1.782130003E-1,3.046100140E-1,3.554295560E-1
7.866445010E-1,1.329510063E-1,2.494100034E-1,3.790920079E-1,4.728552319E-1
7.916552700E-1,2.013719976E-1,2.994300127E-1,4.040589929E-1,5.417311913E-1
7.966662640E-1,2.549729943E-1,3.286040127E-1,3.841910064E-1,5.662106979E-1
8.016770350E-1,2.891539931E-1,3.396019936E-1,3.170019984E-1,5.472018026E-1
8.066878040E-1,2.761900127E-1,3.353640139E-1,2.310470045E-1,4.920697747E-1
8.116986490E-1,2.243839949E-1,2.976169884E-1,1.284399927E-1,3.942345504E-1
8.167094200E-1,1.279139966E-1,2.322259992E-1,2.558699995E-2,2.663561522E-1
8.217204180E-1,2.307699993E-2,1.352670044E-1,-1.041499972E-1,1.722699403E-1
8.267311890E-1,-8.526899666E-2,3.818200156E-2,-2.058590055E-1,2.260676827E-1
8.317419480E-1,-2.084960043E-1,-3.563800082E-2,-3.223769963E-1,3.855743491E-1
8.367527930E-1,-3.344930112E-1,-9.614899755E-2,-4.535399973E-1,5.716893680E-1
8.417637930E-1,-4.518629909E-1,-1.296769977E-1,-5.823550224E-1,7.484207763E-1
8.467745640E-1,-5.426049829E-1,-1.693509966E-1,-6.922460198E-1,8.957145078E-1
8.517853330E-1,-5.966110229E-1,-1.910820007E-1,-7.498540282E-1,9.771070092E-1
8.567961770E-1,-5.946329832E-1,-1.672469974E-1,-7.716379762E-1,9.884255709E-1
8.618069480E-1,-5.737460256E-1,-1.264619976E-1,-7.242090106E-1,9.325533924E-1
8.668177030E-1,-5.305359960E-1,-4.547899961E-2,-6.097990274E-1,8.095626204E-1
8.718287010E-1,-4.866380095E-1,2.588099986E-2,-4.549080133E-1,6.666540925E-1
8.768394720E-1,-4.627839923E-1,6.034100056E-2,-2.408780009E-1,5.251973640E-1
8.818503030E-1,-4.249649942E-1,9.581600130E-2,-2.018399909E-2,4.361001562E-1
8.868610740E-1,-3.452140093E-1,1.343040019E-1,2.000979930E-1,4.210100758E-1
8.918718390E-1,-2.449519932E-1,1.613830030E-1,4.319700003E-1,5.221532666E-1
8.968828370E-1,-1.563770026E-1,1.444469988E-1,6.632300019E-1,6.965577778E-1
9.018936080E-1,-8.722999692E-2,8.578900248E-2,7.983109951E-1,8.076318903E-1
9.069044650E-1,-4.560900107E-2,4.534999840E-3,8.612359762E-1,8.624547257E-1
9.119152360E-1,-2.813800052E-2,-8.307400346E-2,8.642020226E-1,8.686415676E-1
9.169262300E-1,-4.145700112E-2,-1.701920033E-1,8.097509742E-1,8.284809238E-1
9.219370010E-1,-8.951900154E-2,-2.266969979E-1,7.198029757E-1,7.599483563E-1
9.269477710E-1,-1.555880010E-1,-2.672510147E-1,6.351410151E-1,7.064239803E-1
9.319585390E-1,-2.277300060E-1,-2.829749882E-1,5.464270115E-1,6.561389171E-1
9.369693830E-1,-3.130289912E-1,-3.048070073E-1,4.440369904E-1,6.229472770E-1
9.419801740E-1,-3.927209973E-1,-3.000139892E-1,3.306100070E-1,5.945932662E-1
9.469911720E-1,-4.529680014E-1,-2.740359902E-1,2.135210037E-1,5.708475744E-1
9.520019440E-1,-4.966680110E-1,-2.623890042E-1,7.826100290E-2,5.671436213E-1
9.570127880E-1,-5.060300231E-1,-2.296829969E-1,-4.157200083E-2,5.572691402E-1
9.620235590E-1,-4.938119948E-1,-1.761129946E-1,-1.435700059E-1,5.435792671E-1
9.670343280E-1,-4.839690030E-1,-1.325259954E-1,-2.445749938E-1,5.582168601E-1
9.720453400E-1,-4.882389903E-1,-7.977999747E-2,-3.397809863E-1,6.001610436E-1
9.770561120E-1,-4.948790073E-1,-3.168300167E-2,-4.078510106E-1,6.420681360E-1
9.820669560E-1,-5.179880261E-1,2.220000024E-4,-4.847939909E-1,7.094623726E-1
9.870777270E-1,-5.225390196E-1,3.098200075E-2,-5.182610154E-1,7.366148189E-1
9.920884960E-1,-4.839130044E-1,5.381700024E-2,-5.372350216E-1,7.250445047E-1
9.970994940E-1,-4.450969994E-1,8.333799988E-2,-5.370190144E-1,7.024571039E-1
1.002110265E0,-4.198850095E-1,9.421200305E-2,-5.179219842E-1,6.733665454E-1
1.007121045E0,-3.984310031E-1,6.606499851E-2,-4.946939945E-1,6.386188194E-1
1.012131889E0,-3.966810107E-1,2.332999930E-2,-4.866000116E-1,6.282353734E-1
1.017142889E0,-4.050900042E-1,-1.472400036E-2,-4.697650075E-1,6.204787426E-1
1.022153659E0,-3.908379972E-1,-3.874500096E-2,-4.441739917E-1,5.929131893E-1
1.027164428E0,-3.593420088E-1,-4.914199933E-2,-4.121379852E-1,5.489984829E-1
1.032175278E0,-2.997010052E-1,-2.259000018E-2,-3.328610063E-1,4.484723516E-1
1.037186278E0,-1.846770048E-1,2.828699909E-2,-2.421370000E-1,3.058366838E-1
1.042197049E0,-2.237699926E-2,1.237690002E-1,-1.372089982E-1,1.861338354E-1
1.047207818E0,1.583289951E-1,2.347020060E-1,-3.946499899E-2,2.858506401E-1
1.052218587E0,3.018130064E-1,3.257459998E-1,5.824600160E-2,4.478773760E-1
1.057229362E0,3.933399916E-1,3.922779858E-1,1.034049988E-1,5.650583695E-1
1.062240206E0,4.460369945E-1,4.208680093E-1,1.460379958E-1,6.304014419E-1
1.067250992E0,4.561899900E-1,4.213959873E-1,1.597959995E-1,6.412633208E-1
1.072261761E0,4.179829955E-1,3.967750072E-1,1.685270071E-1,6.004511163E-1
1.077272836E0,3.561320007E-1,3.315069973E-1,1.885900050E-1,5.218170955E-1
1.082283607E0,2.460380048E-1,2.589330077E-1,1.770830005E-1,3.986720348E-1
1.087294377E0,1.286450028E-1,1.720450073E-1,1.507129967E-1,2.624184229E-1
1.092305370E0,3.421499953E-2,1.081729978E-1,9.778600186E-2,1.497803919E-1
1.097316141E0,-5.687199906E-2,2.439000085E-2,1.583199948E-2,6.387447554E-2
1.102326910E0,-1.381990016E-1,-7.677999884E-2,-8.566900343E-2,1.798146557E-1
1.107337669E0,-2.292769998E-1,-1.298480034E-1,-1.870689988E-1,3.231458757E-1
1.112348513E0,-3.280940056E-1,-1.474380046E-1,-2.522679865E-1,4.393435771E-1
1.117359299E0,-3.794699907E-1,-9.509199858E-2,-2.306919992E-1,4.541571981E-1
1.122370297E0,-3.504059911E-1,-4.565000068E-3,-1.414970011E-1,3.779240653E-1
1.127381068E0,-2.638640106E-1,8.124700189E-2,-1.836900041E-2,2.766996776E-1
1.132391912E0,-1.508249938E-1,1.459610015E-1,8.592099696E-2,2.267933210E-1
1.137402683E0,-1.555899996E-2,1.686560065E-1,1.448860019E-1,2.228876052E-1
1.142413444E0,6.987799704E-2,1.523669958E-1,1.560840011E-1,2.290433393E-1
1.147424442E0,1.094850004E-1,1.073620021E-1,1.289750040E-1,2.003699490E-1
1.152435222E0,1.391050071E-1,7.870099694E-2,1.043720022E-1,1.908862613E-1
1.157446066E0,1.656270027E-1,5.868000165E-2,2.979299985E-2,1.782225279E-1
1.162456837E0,2.096329927E-1,4.735700041E-2,-3.024099953E-2,2.170327053E-1
1.167467603E0,2.470369935E-1,4.724099860E-2,-7.098899782E-2,2.613396754E-1
1.172478601E0,2.710359991E-1,4.892399907E-2,-1.211899966E-1,3.009004582E-1
1.177489372E0,2.821919918E-1,5.064100027E-2,-1.451169997E-1,3.213343660E-1
1.182500240E0,2.970910072E-1,6.673999876E-2,-1.523450017E-1,3.404795053E-1
1.187511011E0,3.645220101E-1,1.347959936E-1,-1.116119996E-1,4.043556531E-1
1.192521794E0,4.787150025E-1,2.373680025E-1,-7.536999881E-2,5.396223300E-1
1.197532792E0,6.063950062E-1,3.246569932E-1,-6.287600100E-2,6.907028726E-1
1.202543569E0,6.850039959E-1,3.782219887E-1,-9.337300062E-2,7.880360806E-1
1.207554338E0,7.071599960E-1,3.779360056E-1,-1.480740011E-1,8.153752474E-1
1.212565182E0,6.929029822E-1,3.600690067E-1,-2.342530042E-1,8.152537656E-1
1.217575953E0,6.432899833E-1,3.273530006E-1,-3.424229920E-1,7.988964232E-1
1.222586723E0,5.657020211E-1,2.823309898E-1,-4.726440012E-1,7.893807170E-1
1.227597730E0,4.790520072E-1,2.136919945E-1,-5.988500118E-1,7.961007667E-1
1.232608578E0,3.897820115E-1,1.784130037E-1,-6.874250174E-1,8.101323169E-1
1.237619347E0,2.973090112E-1,1.595180035E-1,-7.431079745E-1,8.161177019E-1
1.242630336E0,2.104929984E-1,1.289590001E-1,-7.446230054E-1,7.844750769E-1
1.247641107E0,1.519110054E-1,1.365119964E-1,-6.679229736E-1,6.984508411E-1
1.252651877E0,9.742300212E-2,1.488250047E-1,-5.369859934E-1,5.656801927E-1
1.257662641E0,4.944799840E-2,1.518500000E-1,-3.638640046E-1,3.973670103E-1
1.262673485E0,1.496400032E-2,1.758700013E-1,-1.602340043E-1,2.383885794E-1
1.267684256E0,1.268200018E-2,2.222079933E-1,4.793699831E-2,2.276734091E-1
1.272695254E0,4.713699967E-2,2.570819855E-1,2.559649944E-1,3.658293624E-1
1.277706030E0,1.042219996E-1,2.499330044E-1,4.349690080E-1,5.123736623E-1
1.282716875E0,1.539420038E-1,2.380730063E-1,5.350649953E-1,6.055340173E-1
1.287727641E0,1.736969948E-1,1.860390007E-1,5.848690271E-1,6.378502447E-1
1.292738410E0,1.736820042E-1,1.200029999E-1,5.940099955E-1,6.304078309E-1
1.297749417E0,1.406330019E-1,1.647200063E-2,5.312680006E-1,5.498132924E-1
1.302760188E0,7.965700328E-2,-8.378399909E-2,4.851520061E-1,4.987358677E-1
1.307771032E0,1.458400022E-2,-1.996809989E-1,4.149110019E-1,4.606911481E-1
1.312781804E0,-6.877800077E-2,-3.214589953E-1,3.396329880E-1,4.726699330E-1
1.317792573E0,-1.770859957E-1,-4.372929931E-1,2.498179972E-1,5.338479591E-1
1.322803567E0,-2.728509903E-1,-5.402910113E-1,1.622940004E-1,6.266589043E-1
1.327814338E0,-3.499110043E-1,-6.050130129E-1,1.012379974E-1,7.062064775E-1
1.332825107E0,-3.789960146E-1,-6.254879832E-1,5.021600053E-2,7.330721949E-1
1.337835971E0,-3.684889972E-1,-5.794219971E-1,3.837599978E-2,6.877402919E-1
1.342846742E0,-3.123930097E-1,-4.802429974E-1,5.890699849E-2,5.759277416E-1
1.347857730E0,-2.580870092E-1,-3.270100057E-1,7.631299645E-2,4.235187382E-1
1.352868501E0,-2.122929990E-1,-1.561969966E-1,7.878000289E-2,2.750856376E-1
1.357879350E0,-1.840129942E-1,-9.994000196E-3,8.279900253E-2,2.020305345E-1
1.362890122E0,-1.402679980E-1,1.170369983E-1,8.816699684E-2,2.028452355E-1
1.367901110E0,-8.403900266E-2,2.327020019E-1,9.708499908E-2,2.657786160E-1
1.372911881E0,-1.309600007E-2,3.328459859E-1,1.045920029E-1,3.491381426E-1
1.377922626E0,7.703900337E-2,3.900629878E-1,9.595800191E-2,4.090135458E-1
1.382933470E0,1.695899963E-1,4.288370013E-1,5.907300115E-2,4.649210256E-1
1.387944227E0,2.598179877E-1,4.383719862E-1,2.232199907E-2,5.100722072E-1
1.392955225E0,3.175489902E-1,4.031920135E-1,-5.531499907E-2,5.161985181E-1
1.397966011E0,3.597140014E-1,3.670369983E-1,-1.094240025E-1,5.254368975E-1
1.402976855E0,3.864420056E-1,3.516750038E-1,-1.089650020E-1,5.337472282E-1
1.407987544E0,4.260370135E-1,3.571569920E-1,-6.592500210E-2,5.598345824E-1
1.412998388E0,4.643419981E-1,3.506770134E-1,-9.217999876E-3,5.819560382E-1
1.418009160E0,4.645150006E-1,3.231210113E-1,3.471200168E-2,5.669094255E-1
1.423020163E0,4.116219878E-1,2.215780020E-1,7.481399924E-2,4.734201161E-1
1.428030934E0,3.258990049E-1,9.433700144E-2,8.942200243E-2,3.508645405E-1
1.433041783E0,2.431329936E-1,-4.614000209E-3,8.602499962E-2,2.579442617E-1
1.438052783E0,1.865810007E-1,-8.346100152E-2,4.817299917E-2,2.099972534E-1
1.443063554E0,1.413439959E-1,-1.220360026E-1,9.778000414E-3,1.869933699E-1
1.448074383E0,9.722000360E-2,-1.425060034E-1,-2.179300040E-2,1.738810656E-1
1.453085155E0,6.311900169E-2,-1.432009935E-1,-4.393300042E-2,1.625442754E-1
1.458095929E0,4.790100083E-2,-1.409830004E-1,-3.985999897E-2,1.541412722E-1
1.463106698E0,-2.439999953E-4,-1.661580056E-1,-1.218899991E-2,1.666046640E-1
1.468117696E0,-3.384400159E-2,-1.784060001E-1,4.157900065E-2,1.862872261E-1
1.473128472E0,-4.155400023E-2,-1.854490042E-1,1.000709981E-1,2.147842470E-1
1.478139317E0,-2.621800080E-2,-1.966989934E-1,1.823890060E-1,2.695248172E-1
1.483150083E0,9.506000206E-3,-1.770209968E-1,3.102799952E-1,3.573520292E-1
1.488160852E0,7.477600127E-2,-1.389919966E-1,4.528079927E-1,4.795261242E-1
1.493171850E0,1.509439945E-1,-1.063079983E-1,6.194779873E-1,6.464042518E-1
1.498182621E0,2.129489928E-1,-6.923799962E-2,8.150290251E-1,8.452298420E-1
1.503193391E0,2.860189974E-1,-3.126600012E-2,1.020094991E0,1.059895382E0
1.508204240E0,3.501870036E-1,3.746499866E-2,1.220474958E0,1.270273076E0
1.513215011E0,4.201630056E-1,9.411600232E-2,1.394569993E0,1.459527402E0
1.518225761E0,5.134249926E-1,1.939560026E-1,1.609323978E0,1.700337561E0
1.523236759E0,6.046910286E-1,2.892020047E-1,1.749871969E0,1.873857238E0
1.528247602E0,6.758869886E-1,3.133099973E-1,1.792191029E0,1.940859361E0
1.533258600E0,6.846680045E-1,2.546159923E-1,1.738644958E0,1.885864753E0
1.538269141E0,6.573920250E-1,1.732459962E-1,1.553329945E0,1.695586142E0
1.543280139E0,5.623570085E-1,1.908000000E-2,1.236286044E0,1.358312421E0
1.548290910E0,3.857449889E-1,-2.035329938E-1,7.677299976E-1,8.829689832E-1
1.553301679E0,2.099670023E-1,-4.377219975E-1,2.193209976E-1,5.327179264E-1
1.558312454E0,5.201999843E-2,-5.967109799E-1,-3.246470094E-1,6.812971118E-1
1.563323298E0,-8.327499777E-2,-6.268929839E-1,-8.344860077E-1,1.047041754E0
1.568334069E0,-1.700319946E-1,-5.914859772E-1,-1.259675980E0,1.401980782E0
1.573345076E0,-2.190829962E-1,-4.862680137E-1,-1.637061954E0,1.721750789E0
1.578355847E0,-2.227800041E-1,-3.000499904E-1,-1.839784980E0,1.877357105E0
1.583366691E0,-1.566700041E-1,-1.718199998E-2,-1.841439009E0,1.848171619E0
1.588377463E0,-1.025490016E-1,2.439990044E-1,-1.711264968E0,1.731611851E0
1.593388232E0,-4.057699814E-2,4.754770100E-1,-1.518491030E0,1.591709737E0
1.598399216E0,1.111599989E-2,6.956750154E-1,-1.306007981E0,1.479778409E0
1.603409987E0,1.243899986E-1,9.152740240E-1,-1.017655015E0,1.374343894E0
1.608420831E0,2.463649958E-1,1.087170959E0,-6.825699806E-1,1.307110624E0
1.613431603E0,3.599170148E-1,1.168306947E0,-3.393639922E-1,1.268719551E0
1.618442601E0,4.345679879E-1,1.148808002E0,-4.092299938E-2,1.228936066E0
1.623453367E0,4.405600131E-1,1.038017988E0,2.315839976E-1,1.151175754E0
1.628464136E0,4.091730118E-1,8.354650140E-1,4.538500011E-1,1.035086550E0
1.633474980E0,3.331789970E-1,5.899260044E-1,6.065260172E-1,9.093375304E-1
1.638485980E0,2.309750021E-1,3.165929914E-1,7.085030079E-1,8.096647985E-1
1.643496752E0,8.512999862E-2,7.488100231E-2,7.622330189E-1,7.706188787E-1
1.648507506E0,-7.494000345E-2,-1.496320069E-1,7.604839802E-1,7.786794114E-1
1.653518275E0,-2.229589969E-1,-3.476060033E-1,6.984660029E-1,8.114156796E-1
1.658529119E0,-3.452320099E-1,-4.817430079E-1,6.074990034E-1,8.487146196E-1
1.663539890E0,-4.470480084E-1,-5.624870062E-1,4.734390080E-1,8.604580456E-1
1.668550888E0,-4.986459911E-1,-6.091570258E-1,3.010950089E-1,8.428394336E-1
1.673561655E0,-5.296530128E-1,-6.105740070E-1,1.122139990E-1,8.160422254E-1
1.678572499E0,-5.293329954E-1,-5.558220148E-1,-8.812700212E-2,7.725916779E-1
1.683583266E0,-5.036010146E-1,-4.622919858E-1,-3.093180060E-1,7.503369182E-1
1.688594035E0,-4.745120108E-1,-3.633289933E-1,-5.226759911E-1,7.939520120E-1
1.693605033E0,-4.197440147E-1,-2.353840023E-1,-7.185339928E-1,8.648015756E-1
1.698615871E0,-3.456650078E-1,-1.113300025E-1,-8.755710125E-1,9.478941212E-1
1.703626641E0,-2.790159881E-1,-4.387999885E-3,-9.773820043E-1,1.016437287E0
1.708637395E0,-2.128739953E-1,9.791900218E-2,-1.055250049E0,1.080951495E0
1.713648393E0,-1.522569954E-1,1.894329935E-1,-1.085576057E0,1.112448843E0
1.718659164E0,-8.784399927E-2,2.381799966E-1,-1.083227992E0,1.112577710E0
1.723670018E0,-4.518000036E-2,2.737210095E-1,-1.055657983E0,1.091502726E0
1.728680790E0,-1.689199917E-2,2.689020038E-1,-9.914309978E-1,1.027389435E0
1.733691778E0,1.594500057E-2,2.435819954E-1,-9.027860165E-1,9.352053374E-1
1.738702549E0,4.153599963E-2,2.148600072E-1,-7.707139850E-1,8.011804469E-1
1.743713304E0,6.492300332E-2,1.758670062E-1,-6.120719910E-1,6.401377370E-1
1.748724073E0,8.884000033E-2,1.313840002E-1,-4.388169944E-1,4.665990310E-1
1.753734918E0,9.753700346E-2,7.864399999E-2,-2.962499857E-1,3.216557163E-1
1.758745689E0,8.026500046E-2,1.981299929E-2,-1.316000074E-1,1.554142439E-1
1.763756687E0,4.282899946E-2,-3.853600100E-2,1.709000021E-2,6.009504701E-2
1.768767458E0,-2.089199983E-2,-1.414519995E-1,1.258219928E-1,1.904634288E-1
1.773778236E0,-8.199899644E-2,-2.279819995E-1,2.093929946E-1,3.202265662E-1
1.778789080E0,-1.498720050E-1,-3.318980038E-1,2.440049946E-1,4.383564078E-1
1.783799852E0,-2.173489928E-1,-4.162040055E-1,2.516289949E-1,5.327133469E-1
1.788810636E0,-2.659940124E-1,-4.680680037E-1,2.303500026E-1,5.855780002E-1
1.793821634E0,-2.919099927E-1,-4.959439933E-1,1.901150048E-1,6.060656758E-1
1.798832390E0,-2.869639993E-1,-5.218300223E-1,1.597390026E-1,6.165804554E-1
1.803843234E0,-2.615990043E-1,-5.298089981E-1,1.346510053E-1,6.060218698E-1
1.808853997E0,-2.026840001E-1,-5.020809770E-1,1.271450073E-1,5.561761989E-1
1.813864995E0,-1.182750016E-1,-4.282209873E-1,1.447809935E-1,4.672512451E-1
1.818875775E0,-4.380000010E-2,-3.281779885E-1,1.901410073E-1,3.818020886E-1
1.823886619E0,3.048099950E-2,-2.097849995E-1,2.633720040E-1,3.380882279E-1
1.828897390E0,1.002710015E-1,-9.496600181E-2,3.119100034E-1,3.411167915E-1
1.833908146E0,1.729139984E-1,1.416299958E-2,3.619849980E-1,4.014137269E-1
1.838919144E0,2.506450117E-1,1.107010022E-1,3.967590034E-1,4.821777064E-1
1.843929992E0,3.217200041E-1,1.834799945E-1,4.686700106E-1,5.973443297E-1
1.848940790E0,3.773410022E-1,2.587940097E-1,5.251049995E-1,6.964882138E-1
1.853951559E0,4.208340049E-1,3.064279854E-1,5.802010298E-1,7.795079248E-1
1.858962557E0,4.458630085E-1,3.270930052E-1,6.002839804E-1,8.161645137E-1
1.863973333E0,4.951489866E-1,3.358229995E-1,6.186789870E-1,8.606470211E-1
1.868984103E0,5.216100216E-1,3.166570067E-1,6.040700078E-1,8.586321965E-1
1.873994951E0,5.004600286E-1,2.729179859E-1,5.705649853E-1,8.065289020E-1
1.879005951E0,4.237470031E-1,2.120849937E-1,4.630370140E-1,6.625291265E-1
1.884016722E0,2.949680090E-1,1.138539985E-1,3.194159865E-1,4.494390190E-1
1.889027491E0,1.410509944E-1,3.096700087E-2,1.851260066E-1,2.347892171E-1
1.894038261E0,6.366999820E-3,-2.011300065E-2,8.178099990E-2,8.445829400E-2
1.899049086E0,-8.436100185E-2,-4.911600053E-2,-1.409999968E-4,9.761751903E-2
1.904060086E0,-1.533749998E-1,-9.126400203E-2,-8.954899758E-2,1.996798227E-1
1.909070857E0,-2.338449955E-1,-1.203949973E-1,-1.887779981E-1,3.237523280E-1
1.914081641E0,-2.907440066E-1,-1.623640060E-1,-3.051429987E-1,4.516706737E-1
1.919092410E0,-3.482489884E-1,-1.935199946E-1,-4.361679852E-1,5.907367075E-1
1.924103250E0,-3.744080067E-1,-2.159219980E-1,-5.245299935E-1,6.796582809E-1
1.929114021E0,-3.614079952E-1,-2.039220035E-1,-5.748460293E-1,7.089766427E-1
1.934124790E0,-3.293150067E-1,-1.766999960E-1,-5.895199776E-1,6.980007638E-1
1.939135812E0,-2.832410038E-1,-1.298850030E-1,-5.899869800E-1,6.672182677E-1
1.944146660E0,-2.165109962E-1,-9.877400100E-2,-5.644819736E-1,6.125954728E-1
1.949157444E0,-1.621109992E-1,-8.972299844E-2,-5.228189826E-1,5.546799808E-1
1.954168213E0,-1.195129976E-1,-9.776300192E-2,-4.913749993E-1,5.150634437E-1
1.959179211E0,-1.090969965E-1,-8.757500350E-2,-4.508180022E-1,4.720258542E-1
1.964189992E0,-1.068169996E-1,-8.550599962E-2,-4.274590015E-1,4.488232897E-1
1.969200761E0,-1.310199946E-1,-8.199200034E-2,-3.877789974E-1,4.174463773E-1
1.974211595E0,-1.207839996E-1,-5.840500072E-2,-2.981509864E-1,3.269463708E-1
1.979222367E0,-1.094679981E-1,-5.015200004E-2,-1.969989985E-1,2.308832414E-1
1.984233360E0,-9.421999753E-2,-1.958600059E-2,-7.933899760E-2,1.247224755E-1
1.989244131E0,-8.834499866E-2,-2.809999976E-3,2.269000048E-3,8.841879466E-2
1.994254994E0,-7.248099893E-2,7.348999847E-3,7.654999942E-2,1.056759453E-1
1.999265765E0,-3.977200016E-2,2.712900005E-2,1.436460018E-1,1.514990709E-1
2.004276759E0,-1.614500023E-2,3.924899921E-2,1.343259960E-1,1.408709274E-1
2.009287531E0,7.179999957E-4,3.192099929E-2,9.399999678E-2,9.927469524E-2
2.014298375E0,-3.101699986E-2,1.692399941E-2,2.513900027E-2,4.336410233E-2
2.019309146E0,-6.425700337E-2,1.573400013E-2,-2.859999891E-3,6.621707364E-2
2.024319915E0,-7.369700074E-2,3.274299949E-2,1.248599961E-2,8.160424082E-2
2.029330922E0,-6.614000071E-3,6.980200112E-2,4.017800093E-2,8.081049508E-2
2.034341694E0,4.940300062E-2,7.306099683E-2,9.425000101E-2,1.290799304E-1
2.039352463E0,8.834899962E-2,6.870199740E-2,1.053709984E-1,1.537158335E-1
2.044363288E0,8.108200133E-2,2.405799925E-2,7.812599838E-2,1.151379602E-1
2.049374059E0,3.822299838E-2,-2.733499929E-2,1.491899975E-2,4.930290402E-2
2.054385042E0,2.072999952E-3,-8.083300292E-2,-8.183000237E-2,1.150409535E-1
2.059395890E0,-5.151899904E-2,-1.132059991E-1,-1.832080036E-1,2.214384296E-1
2.064406660E0,-1.321740001E-1,-1.295830011E-1,-2.771509886E-1,3.332782486E-1
2.069417429E0,-2.094029933E-1,-1.439719945E-1,-3.278770149E-1,4.148263320E-1
2.074428427E0,-2.627460063E-1,-1.421239972E-1,-3.329820037E-1,4.473384727E-1
2.079439198E0,-2.558340132E-1,-9.851100296E-2,-2.970759869E-1,4.042395354E-1
2.084449982E0,-2.204139978E-1,-6.075700000E-2,-2.393880039E-1,3.310292433E-1
2.089460827E0,-1.617179960E-1,-1.665299945E-2,-1.384660006E-1,2.135482754E-1
2.094471612E0,-7.984600216E-2,1.489199977E-2,-5.420500040E-2,9.764905420E-2
2.099482381E0,-2.921999898E-3,5.041300133E-2,-5.667999852E-3,5.081471252E-2
2.104493384E0,3.220200166E-2,5.724599957E-2,2.847900055E-2,7.158999128E-2
2.109504155E0,5.930799991E-2,6.670700014E-2,8.886799961E-2,1.259554845E-1
2.114515013E0,6.270799786E-2,5.766599998E-2,1.203679964E-1,1.474656404E-1
2.119525785E0,4.792400077E-2,4.695999995E-2,1.492909938E-1,1.636757535E-1
2.124536783E0,2.022900060E-2,3.923200071E-2,1.565449983E-1,1.626490050E-1
2.129547544E0,-1.074299961E-2,4.611200094E-2,1.661529988E-1,1.727673224E-1
2.134558388E0,-3.571600094E-2,5.306300148E-2,1.614110023E-1,1.736226555E-1
2.139569151E0,-3.634899855E-2,4.843800142E-2,1.637440026E-1,1.745840430E-1
2.144579921E0,-1.540399995E-2,1.637399942E-2,1.585350037E-1,1.601210119E-1
2.149590919E0,1.771100052E-2,-3.107599914E-2,1.242259964E-1,1.292729494E-1
2.154601675E0,3.953899816E-2,-7.981300354E-2,4.415100068E-2,9.941206552E-2
2.159612519E0,2.268400043E-2,-1.300559938E-1,-7.202500105E-2,1.503885839E-1
2.164623281E0,2.640000079E-3,-1.748279929E-1,-2.027170062E-1,2.677050267E-1
2.169634279E0,-2.365499921E-2,-2.074770033E-1,-3.477849960E-1,4.056607812E-1
2.174645050E0,-5.205100030E-2,-2.097470015E-1,-4.950290024E-1,5.401451884E-1
2.179655810E0,-8.314900100E-2,-1.915020049E-1,-5.917329788E-1,6.274828224E-1
2.184666654E0,-9.642100334E-2,-1.578200012E-1,-6.641659737E-1,6.894349884E-1
2.189677425E0,-3.477700055E-2,-8.996400237E-2,-6.333140135E-1,6.406165789E-1
2.194688194E0,6.950800121E-2,-5.084000062E-3,-5.780540109E-1,5.822401985E-1
2.199699192E0,1.666920036E-1,4.714899883E-2,-5.583530068E-1,5.846087002E-1
2.204710055E0,2.293190062E-1,8.908700198E-2,-4.930410087E-1,5.510110133E-1
2.209720824E0,2.470909953E-1,1.208899990E-1,-4.395439923E-1,5.185241296E-1
2.214731822E0,2.493250072E-1,1.570090055E-1,-3.571929932E-1,4.630352270E-1
2.219742593E0,2.320179939E-1,1.906830072E-1,-2.245479971E-1,3.749855487E-1
2.224753428E0,2.076050043E-1,2.080329955E-1,-9.677500278E-2,3.094236031E-1
2.229764123E0,1.349480003E-1,1.601710021E-1,-2.956999931E-3,2.094623034E-1
2.234774981E0,6.441599876E-2,9.300000221E-2,9.027100354E-2,1.447317359E-1
2.239785981E0,5.671999883E-3,2.089699917E-2,1.661490053E-1,1.675540155E-1
2.244796752E0,-4.352999851E-2,-3.536200151E-2,2.057400048E-1,2.132469964E-1
2.249807536E0,-9.032899886E-2,-9.477700293E-2,2.066099942E-1,2.446010998E-1
2.254818380E0,-1.301089972E-1,-1.503040045E-1,2.118639946E-1,2.905271023E-1
2.259829380E0,-1.491190046E-1,-1.926600039E-1,2.120099962E-1,3.229591199E-1
2.264840147E0,-1.433089972E-1,-2.011400014E-1,1.977059990E-1,3.163580738E-1
2.269850991E0,-1.319029927E-1,-1.859429926E-1,1.810940057E-1,2.911498495E-1
2.274861757E0,-1.385219991E-1,-1.450400054E-1,1.909900010E-1,2.769514901E-1
2.279872755E0,-1.231629997E-1,-1.044050008E-1,2.296839952E-1,2.807565963E-1
2.284883296E0,-5.866200104E-2,-4.068500176E-2,2.781839967E-1,2.871982516E-1
2.289894304E0,1.687300019E-2,5.952999927E-3,3.291679919E-1,3.296539143E-1
2.294905075E0,6.864199787E-2,2.218800038E-2,3.727810085E-1,3.796968679E-1
2.299915919E0,9.760399908E-2,1.072399970E-2,3.945919871E-1,4.066256031E-1
2.304926694E0,9.052500129E-2,-9.232000448E-3,3.850199878E-1,3.956265875E-1
2.309937692E0,3.217300028E-2,-5.135000125E-2,3.678239882E-1,3.727819884E-1
2.314948526E0,-3.452799842E-2,-8.064799756E-2,2.977949977E-1,3.104482933E-1
2.319959219E0,-1.168069988E-1,-9.759300202E-2,2.181520015E-1,2.660048210E-1
2.324970063E0,-1.683550030E-1,-9.330800176E-2,1.673620045E-1,2.550682865E-1
2.329981077E0,-2.205120027E-1,-8.916100115E-2,1.310310066E-1,2.715591135E-1
2.334991848E0,-2.572369874E-1,-8.294499665E-2,1.020269990E-1,2.888948747E-1
2.340002613E0,-2.487509996E-1,-7.236299664E-2,7.796599716E-2,2.705404956E-1
2.345013457E0,-2.336200029E-1,-7.154799998E-2,7.074300200E-2,2.543658672E-1
2.350024238E0,-2.120150030E-1,-7.558500022E-2,5.399600044E-2,2.314714276E-1
2.355035236E0,-1.912339926E-1,-9.348700196E-2,7.542800158E-2,2.258310051E-1
2.360046007E0,-1.688719988E-1,-1.252290010E-1,6.085300073E-2,2.188678651E-1
2.365056866E0,-1.404920071E-1,-1.541630030E-1,4.378600046E-2,2.131230851E-1
2.370067637E0,-1.342550069E-1,-1.826550066E-1,4.815899953E-2,2.317467315E-1
2.375078644E0,-1.382350028E-1,-1.944250017E-1,8.127299696E-2,2.520224143E-1
2.380089416E0,-1.499850005E-1,-1.827069968E-1,1.551949978E-1,2.827770047E-1
2.385100185E0,-1.343230009E-1,-1.293909997E-1,2.725549936E-1,3.302588741E-1
2.390111034E0,-1.102180034E-1,-1.033580005E-1,3.853609860E-1,4.139250827E-1
2.395121805E0,-7.725200057E-2,-7.601699978E-2,4.769020081E-1,4.890623489E-1
2.400132561E0,-2.799900062E-2,-5.914900079E-2,5.519189835E-1,5.557851317E-1
2.405143559E0,-6.364000030E-3,-5.025000125E-2,5.912910104E-1,5.934565039E-1
2.410154392E0,1.207800023E-2,-5.392299965E-2,5.854229927E-1,5.880252107E-1
2.415165161E0,3.000300005E-2,-3.752100095E-2,5.249689817E-1,5.271626289E-1
2.420176159E0,5.630100146E-2,-2.495699935E-2,4.242630005E-1,4.287093983E-1
2.425186940E0,7.870700210E-2,-9.239999577E-3,3.216300011E-1,3.312491922E-1
2.430197784E0,9.919299930E-2,2.627999987E-3,2.050469965E-1,2.277947064E-1
2.435208479E0,1.059359983E-1,-1.500200015E-2,5.760399997E-2,1.215142648E-1
2.440219323E0,9.900599718E-2,-6.349299848E-2,-8.744700253E-2,1.465623642E-1
2.445230323E0,7.826600224E-2,-1.022680029E-1,-2.157270014E-1,2.512418171E-1
2.450241079E0,3.937400132E-2,-1.735990047E-1,-3.704870045E-1,4.110322943E-1
2.455251848E0,-3.871999914E-3,-2.510139942E-1,-5.589590073E-1,6.127464316E-1
2.460262698E0,-2.921899967E-2,-2.878119946E-1,-7.163389921E-1,7.725484100E-1
2.465273469E0,-4.988799989E-2,-2.919799984E-1,-8.329240084E-1,8.840268863E-1
2.470284467E0,-3.671199828E-2,-2.876600027E-1,-9.135699868E-1,9.584916112E-1
2.475295243E0,-3.278000047E-3,-2.307139933E-1,-9.341229796E-1,9.621982296E-1
2.480306087E0,4.505899921E-2,-1.689839959E-1,-8.898410201E-1,9.068643478E-1
2.485316862E0,1.148699969E-1,-7.720199972E-2,-8.235539794E-1,8.351026416E-1
2.490327860E0,1.874099970E-1,4.172199965E-2,-7.207239866E-1,7.458594352E-1
2.495338607E0,2.353059947E-1,1.804510057E-1,-5.429019928E-1,6.186065393E-1
2.500349451E0,2.948920131E-1,3.153420091E-1,-3.451209962E-1,5.527299378E-1
2.505360237E0,3.205190003E-1,4.277270138E-1,-1.680130064E-1,5.602777867E-1
2.510371006E0,3.463940024E-1,5.064280033E-1,-1.648700051E-2,6.137833076E-1
2.515382004E0,3.569839895E-1,5.387009978E-1,1.569779962E-1,6.650401680E-1
2.520392853E0,3.652769923E-1,5.397629738E-1,3.163129985E-1,7.244482466E-1
2.525403622E0,3.512499928E-1,5.174160004E-1,4.637889862E-1,7.785859610E-1
2.530414620E0,3.395490050E-1,4.813010097E-1,5.658869743E-1,8.168061315E-1
2.535425405E0,3.072679937E-1,4.105809927E-1,6.295940280E-1,8.120215586E-1
2.540436249E0,2.621980011E-1,3.111850023E-1,7.239609957E-1,8.304838474E-1
2.545447010E0,2.119850069E-1,1.651429981E-1,7.935850024E-1,8.378466501E-1
2.550457780E0,1.220199987E-1,-1.940900087E-2,8.429600000E-1,8.519666373E-1
2.555468788E0,2.313300036E-2,-1.645040065E-1,9.058240056E-1,9.209309599E-1
2.560479559E0,-6.421399862E-2,-2.692260146E-1,9.394800067E-1,9.794022501E-1
2.565490403E0,-1.246939972E-1,-3.073540032E-1,8.991450071E-1,9.583719633E-1
2.570501174E0,-1.595190018E-1,-2.903270125E-1,8.164409995E-1,8.810856893E-1
2.575511944E0,-1.671310067E-1,-2.851870060E-1,6.913719773E-1,7.663286585E-1
2.580522942E0,-1.739290059E-1,-2.964439988E-1,5.358350277E-1,6.365921146E-1
2.585533713E0,-1.333840042E-1,-2.655889988E-1,3.669469953E-1,4.722064233E-1
2.590544482E0,-2.368799970E-2,-1.915410012E-1,1.587509960E-1,2.499018911E-1
2.595555326E0,9.505800158E-2,-5.914499983E-2,-5.713500082E-2,1.256923346E-1
2.600566326E0,2.078009993E-1,7.860399783E-2,-3.164460063E-1,3.866496071E-1
2.605577112E0,3.090850115E-1,2.474890053E-1,-5.471529961E-1,6.753967376E-1
2.610587881E0,3.659070134E-1,4.080150127E-1,-7.207819819E-1,9.054782485E-1
2.615598725E0,3.788509965E-1,5.363979936E-1,-7.901600003E-1,1.027425769E0
2.620609487E0,3.791899979E-1,6.767410040E-1,-7.746829987E-1,1.096310718E0
2.625620485E0,3.677450120E-1,7.714560032E-1,-7.228839993E-1,1.119348934E0
2.630631261E0,3.203360140E-1,8.018800020E-1,-6.165540218E-1,1.061020999E0
2.635642106E0,2.526479959E-1,7.821609974E-1,-4.756320119E-1,9.496486963E-1
2.640653106E0,1.826359928E-1,7.343680263E-1,-3.578189909E-1,8.370703281E-1
2.645663862E0,1.041620001E-1,6.241689920E-1,-2.685489953E-1,6.874265166E-1
2.650674631E0,1.316600014E-2,4.534220099E-1,-1.535609961E-1,4.789006600E-1
2.655685485E0,-6.626900285E-2,2.445960045E-1,-5.157800019E-2,2.586098920E-1
2.660696256E0,-1.112430021E-1,3.995399922E-2,-1.502500009E-2,1.191514927E-1
2.665707021E0,-1.022730023E-1,-1.164330021E-1,3.553099930E-2,1.589932793E-1
2.670718019E0,-5.018400028E-2,-2.289710045E-1,1.227699965E-2,2.347272449E-1
2.675728867E0,2.988200076E-2,-3.182609975E-1,-7.707399875E-2,3.288212247E-1
2.680739631E0,9.058699757E-2,-3.946329951E-1,-2.083050013E-1,4.553374337E-1
2.685750400E0,1.368419975E-1,-4.701209962E-1,-3.311240077E-1,5.910859429E-1
2.690761428E0,1.643570065E-1,-5.120310187E-1,-4.212929904E-1,6.831374485E-1
2.695772200E0,1.454309970E-1,-5.146030188E-1,-4.974319935E-1,7.303458290E-1
2.700783029E0,1.087210029E-1,-4.858559966E-1,-5.329179764E-1,7.292995787E-1
2.705793800E0,5.411899835E-2,-4.221360087E-1,-5.345289707E-1,6.832634165E-1
2.710804784E0,-2.282400057E-2,-3.454059958E-1,-4.925499856E-1,6.020230272E-1
2.715815555E0,-1.334349960E-1,-3.769119978E-1,-4.152649939E-1,5.764655822E-1
2.720826385E0,-2.053000033E-1,-3.689729869E-1,-2.378239930E-1,4.846126371E-1
2.725837157E0,-1.626770049E-1,-1.683509946E-1,7.246500254E-2,2.450653829E-1
2.730848159E0,-6.105000153E-2,2.053800039E-2,2.479179949E-1,2.561488714E-1
2.735858930E0,1.905599982E-2,1.630109996E-1,4.508230090E-1,4.797677590E-1
2.740869704E0,6.427100301E-2,2.319650054E-1,6.782429814E-1,7.196888685E-1
2.745880548E0,4.371200129E-2,2.524029911E-1,9.441869855E-1,9.783184924E-1
2.750891320E0,-1.876699924E-2,2.350939959E-1,1.199622989E0,1.222586071E0
2.755902318E0,-1.789600030E-2,1.960269958E-1,1.343500972E0,1.357844509E0
2.760913089E0,3.722700104E-2,1.519570053E-1,1.318398952E0,1.327649268E0
2.765923933E0,1.481260061E-1,7.400300354E-2,1.186596990E0,1.198094393E0
2.770934690E0,2.143730074E-1,-1.228899974E-2,1.016842008E0,1.039266315E0
2.775945460E0,2.404129952E-1,-9.792900085E-2,8.620470166E-1,9.002852639E-1
2.780956477E0,2.273560017E-1,-1.850609928E-1,6.766800284E-1,7.374511397E-1
2.785967325E0,1.648429930E-1,-2.945820093E-1,4.246590137E-1,5.424823043E-1
2.790978089E0,6.358099729E-2,-4.134910107E-1,1.966000050E-1,4.622433570E-1
2.795988858E0,-5.003000051E-2,-5.014420152E-1,-2.171500027E-2,5.043992831E-1
2.800999856E0,-1.437750012E-1,-5.168099999E-1,-2.106450051E-1,5.763116736E-1
2.806010709E0,-2.053070068E-1,-4.958040118E-1,-3.461740017E-1,6.385992677E-1
2.811021479E0,-2.274840027E-1,-4.063740075E-1,-4.230690002E-1,6.291869233E-1
2.816032477E0,-2.261459976E-1,-3.194009960E-1,-4.201459885E-1,5.741791185E-1
2.821043248E0,-2.345640063E-1,-2.411140054E-1,-3.473109901E-1,4.835092145E-1
2.826054041E0,-2.451190054E-1,-1.893170029E-1,-2.122019976E-1,3.754383334E-1
2.831064885E0,-2.410019934E-1,-1.094719991E-1,-3.618999943E-2,2.671624889E-1
2.836075885E0,-1.988209933E-1,1.857599989E-2,1.596499979E-1,2.556618411E-1
2.841086647E0,-1.215310022E-1,1.584759951E-1,3.467459977E-1,4.001464887E-1
2.846097416E0,-3.053200059E-2,2.560600042E-1,5.152270198E-1,5.761578002E-1
2.851108246E0,4.418800026E-2,3.120650053E-1,6.529150009E-1,7.250069967E-1
2.856119017E0,1.154680029E-1,3.035610020E-1,7.331629992E-1,8.018791212E-1
2.861130019E0,2.050230056E-1,2.546960115E-1,7.271800041E-1,7.973049915E-1
2.866140790E0,3.058600128E-1,1.984879971E-1,6.183999777E-1,7.178902178E-1
2.871151630E0,3.903979957E-1,1.675910056E-1,4.406839907E-1,6.121272089E-1
2.876162401E0,4.475899935E-1,1.402730048E-1,2.037270069E-1,5.113883177E-1
2.881173399E0,4.686399996E-1,1.303479970E-1,-7.546599954E-2,4.922490900E-1
2.886184166E0,4.374369979E-1,1.190560013E-1,-3.610999882E-1,5.795849032E-1
2.891195010E0,3.641610146E-1,1.024649963E-1,-6.103799939E-1,7.181058814E-1
2.896205796E0,2.542330027E-1,1.070920005E-1,-8.113660216E-1,8.569818769E-1
2.901216794E0,1.387780011E-1,1.144339964E-1,-9.738519788E-1,9.903242649E-1
2.906227575E0,1.778399944E-2,1.226600036E-1,-1.107610941E0,1.114523999E0
2.911238419E0,-9.359499812E-2,1.247069985E-1,-1.223050952E0,1.232949914E0
2.916249190E0,-2.108210027E-1,1.226610020E-1,-1.260751009E0,1.284127845E0
2.921259954E0,-3.033640087E-1,8.544799685E-2,-1.239917040E0,1.279345672E0
2.926270952E0,-3.787800074E-1,2.216500044E-2,-1.160395026E0,1.220853062E0
2.931281801E0,-3.974690139E-1,-5.616600066E-2,-1.033746958E0,1.108949507E0
2.936292541E0,-3.743509948E-1,-1.118320003E-1,-8.402060270E-1,9.266019812E-1
2.941303310E0,-3.314839900E-1,-1.274030060E-1,-6.341959834E-1,7.268546670E-1
2.946314084E0,-2.644259930E-1,-1.257900000E-1,-4.511170089E-1,5.378204027E-1
2.951325082E0,-2.086479962E-1,-1.055580005E-1,-2.618629932E-1,3.510679493E-1
2.956335854E0,-1.640120000E-1,-4.902600124E-2,-7.064600289E-2,1.851873177E-1
2.961346702E0,-1.181719974E-1,2.825799957E-2,9.909199923E-2,1.567876265E-1
2.966357702E0,-5.904100090E-2,1.207010001E-1,2.500630021E-1,2.838768681E-1
2.971368459E0,2.763699926E-2,2.182600051E-1,3.872219920E-1,4.453561548E-1
2.976379303E0,1.373409927E-1,2.851249874E-1,4.650860131E-1,5.625511588E-1
2.981390074E0,2.424429953E-1,3.805760145E-1,5.437769890E-1,7.066187958E-1
2.986401067E0,3.253990114E-1,4.334700108E-1,5.633429885E-1,7.817519360E-1
2.991411839E0,4.734340012E-1,5.918670297E-1,5.486779809E-1,9.356782893E-1
2.996422674E0,6.149700284E-1,6.824600101E-1,4.849129915E-1,1.038787953E0
3.001433445E0,7.451930046E-1,7.869799733E-1,4.508810043E-1,1.173858498E0
3.006444438E0,8.459079862E-1,8.664460182E-1,4.890629947E-1,1.305937072E0
3.011455209E0,8.905749917E-1,8.934569955E-1,5.296959877E-1,1.368198472E0
3.016465974E0,8.743669987E-1,8.500130177E-1,4.935140014E-1,1.315521132E0
3.021476818E0,8.223339915E-1,7.535219789E-1,3.874909878E-1,1.180753078E0
3.026487589E0,7.050030231E-1,5.767689943E-1,2.350540012E-1,9.407136222E-1
3.031498601E0,4.867970049E-1,3.170239925E-1,2.120600082E-2,5.813133667E-1
3.036509449E0,2.027200013E-1,-1.601199992E-2,-1.807440072E-1,2.720664978E-1
3.041520218E0,-1.176540032E-1,-3.381429911E-1,-3.779779971E-1,5.206251177E-1
3.046531007E0,-4.183200002E-1,-6.162750125E-1,-5.367720127E-1,9.181016867E-1
3.051542005E0,-6.640300155E-1,-8.276749849E-1,-6.351619959E-1,1.236694183E0
3.056552853E0,-8.299329877E-1,-9.577339888E-1,-6.772660017E-1,1.436917671E0
3.061563622E0,-9.058099985E-1,-1.027508020E0,-6.985350251E-1,1.537600620E0
3.066574391E0,-9.439470172E-1,-1.064666033E0,-7.034379840E-1,1.587253833E0
3.071585161E0,-9.647330046E-1,-1.044636011E0,-6.699470282E-1,1.571878871E0
3.076596235E0,-9.876919985E-1,-9.664819837E-1,-5.641310215E-1,1.492604006E0
3.081607026E0,-9.776039720E-1,-8.739860058E-1,-4.481160045E-1,1.385773797E0
3.086617795E0,-9.513959885E-1,-7.187899947E-1,-3.069660068E-1,1.231276375E0
3.091628793E0,-8.508189917E-1,-5.707889795E-1,-1.838819981E-1,1.040915753E0
3.096639564E0,-7.590739727E-1,-4.137670100E-1,-5.716599897E-2,8.664089023E-1
3.101650333E0,-6.036739945E-1,-2.667019963E-1,1.015359983E-1,6.677288413E-1
3.106661164E0,-4.130899906E-1,-1.277599931E-1,2.014670074E-1,4.770271599E-1
3.111671935E0,-2.154240012E-1,-8.612999693E-3,2.928240001E-1,3.636311031E-1
3.116682933E0,-1.901599951E-2,8.150800318E-2,3.373579979E-1,3.475853587E-1
3.121693713E0,1.605720073E-1,1.594099998E-1,3.280420005E-1,3.985052969E-1
3.126704557E0,3.176800013E-1,1.920929998E-1,2.170619965E-1,4.300421073E-1
3.131715557E0,4.249030054E-1,1.736019999E-1,6.160200015E-2,4.631144834E-1
3.136726329E0,4.464679956E-1,1.314579993E-1,-9.535899758E-2,4.750875868E-1
3.141737098E0,3.613680005E-1,7.125400007E-2,-2.752979994E-1,4.598401383E-1
3.146747928E0,2.257560045E-1,-2.681500092E-2,-4.332549870E-1,4.892797784E-1
3.151758699E0,4.036299884E-2,-1.520559937E-1,-6.054689884E-1,6.255740506E-1
3.156769707E0,-1.382369995E-1,-2.890419960E-1,-7.661340237E-1,8.304312649E-1
3.161780478E0,-4.197309911E-1,-3.918269873E-1,-8.481050134E-1,1.024199495E0
3.166791323E0,-3.908509910E-1,-4.268519878E-1,-9.940260053E-1,1.150241199E0
3.171802089E0,-4.130840003E-1,-4.341599941E-1,-1.164736986E0,1.309864702E0
3.176813087E0,-5.174909830E-1,-4.422059953E-1,-1.092309952E0,1.287044712E0
3.181823858E0,-5.475860238E-1,-4.652290046E-1,-1.003994942E0,1.234623150E0
3.186834702E0,-4.974179864E-1,-5.003539920E-1,-9.282490015E-1,1.165943815E0
3.191845474E0,-4.070979953E-1,-5.178009868E-1,-8.280019760E-1,1.058033039E0
3.196856472E0,-3.263530135E-1,-5.342419744E-1,-7.079889774E-1,9.450762767E-1
3.201867247E0,-2.986660004E-1,-5.402609706E-1,-5.511580110E-1,8.275617495E-1
3.206878016E0,-2.383369952E-1,-5.129250288E-1,-3.643380105E-1,6.727843595E-1
3.211888865E0,-1.641869992E-1,-4.487070143E-1,-1.900690049E-1,5.142193910E-1
3.216899636E0,-1.062079966E-1,-3.723919988E-1,-3.268299997E-2,3.886182160E-1
3.221910639E0,-2.875399962E-2,-3.223400116E-1,5.997600034E-2,3.291306673E-1
3.226921411E0,6.524799764E-2,-2.628679872E-1,1.693180054E-1,3.194142558E-1
3.231932255E0,1.664240062E-1,-1.969829947E-1,2.453539968E-1,3.559463917E-1
3.236943255E0,2.405399978E-1,-1.176159978E-1,3.361420035E-1,4.297492990E-1
3.241954103E0,2.915169895E-1,-4.868799821E-2,3.963420093E-1,4.944083987E-1
3.246964872E0,2.973439991E-1,-1.125200000E-2,4.043770134E-1,5.020566007E-1
3.251975642E0,2.824780047E-1,2.259200066E-2,3.509759903E-1,4.510968492E-1
3.256986397E0,2.820949852E-1,5.954800174E-2,2.649360001E-1,3.915541206E-1
3.261997395E0,2.630259991E-1,9.430199862E-2,1.368699968E-1,3.111413491E-1
3.267008166E0,2.161220014E-1,1.200670004E-1,2.168099955E-2,2.481831377E-1
3.272018999E0,1.300619990E-1,1.440120041E-1,-8.539699763E-2,2.120099717E-1
3.277029770E0,5.889900029E-2,1.871870011E-1,-1.770949960E-1,2.643306702E-1
3.282040768E0,6.184000056E-3,2.057249993E-1,-1.822800040E-1,2.749309314E-1
3.287051511E0,-3.581999987E-2,2.212949991E-1,-1.704310030E-1,2.816048221E-1
3.292062355E0,-7.456299663E-2,2.064809948E-1,-1.133100018E-1,2.470489793E-1
3.297073126E0,-8.943799883E-2,1.622229964E-1,-3.284500167E-2,1.881335970E-1
3.302084110E0,-9.278900176E-2,1.053970009E-1,4.218599945E-2,1.466219124E-1
3.307094881E0,-7.576499879E-2,3.626799956E-2,1.331869960E-1,1.574626265E-1
3.312105725E0,-3.423399851E-2,-5.810000002E-4,2.356510013E-1,2.381253843E-1
3.317116516E0,1.756699942E-2,-1.398000051E-3,3.475610018E-1,3.480074767E-1
3.322127514E0,8.682099730E-2,1.385600027E-2,4.309259951E-1,4.398034647E-1
3.327138285E0,1.479319930E-1,6.551899761E-2,4.909889996E-1,5.169591970E-1
3.332149129E0,1.690140069E-1,1.479929984E-1,5.448740125E-1,5.893686041E-1
3.337159900E0,1.975860000E-1,2.369389981E-1,5.735520124E-1,6.512620265E-1
3.342170922E0,2.285210043E-1,3.414970040E-1,5.939130187E-1,7.222013064E-1
3.347181694E0,2.543410063E-1,4.122200012E-1,6.272029877E-1,7.924634153E-1
3.352192538E0,2.588469982E-1,4.383539855E-1,6.586740017E-1,8.324706755E-1
3.357203309E0,2.637040019E-1,4.417400062E-1,6.547269821E-1,8.326712766E-1
3.362214307E0,2.598449886E-1,3.850609958E-1,5.863299966E-1,7.480469594E-1
3.367225054E0,2.198819965E-1,3.165110052E-1,5.012720227E-1,6.322981493E-1
3.372235824E0,1.637710035E-1,2.502839863E-1,3.924559951E-1,4.934417123E-1
3.377246668E0,1.313990057E-1,1.838759929E-1,2.431329936E-1,3.319483876E-1
3.382257682E0,9.383799881E-2,1.290660053E-1,1.012160033E-1,1.889663544E-1
3.387268530E0,3.237399831E-2,8.557099849E-2,-6.667599827E-2,1.132084815E-1
3.392279304E0,-3.190800175E-2,3.503099829E-2,-1.914509982E-1,1.972277266E-1
3.397290302E0,-1.037560031E-1,8.098999970E-3,-3.064430058E-1,3.236328441E-1
3.402301083E0,-1.739660054E-1,-4.418999888E-3,-3.567599952E-1,3.969400368E-1
3.407311853E0,-1.959400028E-1,8.706999943E-3,-4.259380102E-1,4.689258844E-1
3.412322697E0,-1.824540049E-1,2.607000060E-2,-4.853360057E-1,5.191532984E-1
3.417333468E0,-1.623989940E-1,2.198199928E-2,-5.615140200E-1,5.849398569E-1
3.422344451E0,-1.198830009E-1,2.495500073E-2,-6.448630095E-1,6.563863092E-1
3.427355222E0,-5.122999847E-2,4.210200161E-2,-7.162590027E-1,7.193219378E-1
3.432366061E0,1.700500026E-2,7.550600171E-2,-7.923460007E-1,7.961171466E-1
3.437377061E0,6.825099885E-2,1.111380011E-1,-8.540890217E-1,8.639895318E-1
3.442387833E0,7.506100088E-2,1.189190000E-1,-8.994339705E-1,9.103611095E-1
3.447398673E0,9.661699831E-2,1.138520017E-1,-9.358270168E-1,9.476651983E-1
3.452409444E0,1.201590002E-1,1.147779971E-1,-9.775410295E-1,9.915637338E-1
3.457420456E0,4.569999874E-2,8.995299786E-2,-9.342110157E-1,9.396436844E-1
3.462431227E0,-2.398899943E-2,8.277700096E-2,-8.275120258E-1,8.319877745E-1
3.467442008E0,-5.179499835E-2,1.087940037E-1,-7.383840084E-1,7.481509213E-1
3.472452777E0,-3.226799890E-2,1.648889929E-1,-6.187400222E-1,6.411464878E-1
3.477463852E0,-1.329599973E-2,2.224519998E-1,-4.638209939E-1,5.145790417E-1
3.482474420E0,2.161799930E-2,2.603220046E-1,-3.120459914E-1,4.069491181E-1
3.487485418E0,7.249800116E-2,2.694230080E-1,-1.516119987E-1,3.175388410E-1
3.492496200E0,1.257510036E-1,2.782819867E-1,5.630999804E-3,3.054273845E-1
3.497507044E0,1.912759990E-1,2.520689964E-1,1.808490008E-1,3.644607631E-1
3.502517796E0,2.508099973E-1,2.167350054E-1,3.383319974E-1,4.736541542E-1
3.507528794E0,2.841550112E-1,1.580280066E-1,4.637230039E-1,5.663531986E-1
3.512539632E0,2.808310091E-1,9.260600060E-2,5.857949853E-1,6.561994299E-1
3.517550401E0,2.703450024E-1,2.253500000E-2,6.783559918E-1,7.305895552E-1
3.522561176E0,2.487909943E-1,-2.942099981E-2,7.346569896E-1,7.761980716E-1
3.527572174E0,2.445850074E-1,-7.565200329E-2,7.476580143E-1,7.902768868E-1
3.532583031E0,2.362949997E-1,-1.517779976E-1,7.220360041E-1,7.747308427E-1
3.537593800E0,2.074030042E-1,-1.943330020E-1,6.749439836E-1,7.323460266E-1
3.542604827E0,1.882659942E-1,-2.137950063E-1,6.186590195E-1,6.810957140E-1
3.547615598E0,1.736389995E-1,-1.992920041E-1,5.248420238E-1,5.876452629E-1
3.552626437E0,1.559659988E-1,-1.799509972E-1,4.271189868E-1,4.890177738E-1
3.557637209E0,1.302029938E-1,-1.300790012E-1,3.472279906E-1,3.929893683E-1
3.562647978E0,8.491600305E-2,-7.139100134E-2,2.899920046E-1,3.104879473E-1
3.567658986E0,5.744199827E-2,-1.827299967E-2,2.147330046E-1,2.230330669E-1
3.572669757E0,4.223600030E-2,8.027000353E-3,9.502100199E-2,1.042943109E-1
3.577680601E0,2.912200056E-2,3.430299833E-2,2.162400074E-2,4.992378210E-2
3.582691359E0,1.067299955E-2,7.012300193E-2,-1.742300019E-2,7.303909402E-2
3.587702357E0,1.472700015E-2,9.932100028E-2,-1.513800025E-2,1.015416401E-1
3.592713205E0,3.142600134E-2,1.339090019E-1,-5.028999876E-3,1.376390395E-1
3.597723974E0,8.129800111E-2,1.483190060E-1,2.462200075E-2,1.709214306E-1
3.602734743E0,1.148070022E-1,1.431089938E-1,6.883700192E-2,1.959575584E-1
3.607745741E0,1.280840039E-1,1.311469972E-1,1.823329926E-1,2.585543794E-1
3.612756517E0,1.082189977E-1,1.153300032E-1,3.361960053E-1,3.715375016E-1
3.617767361E0,9.156599641E-2,1.191750020E-1,5.138099790E-1,5.353388714E-1
3.622778127E0,7.619299740E-2,1.209900007E-1,6.936810017E-1,7.082635704E-1
3.627789125E0,8.800899982E-2,1.251980066E-1,8.496170044E-1,8.632897422E-1
3.632799901E0,1.127770022E-1,1.009410024E-1,9.671689868E-1,9.789400325E-1
3.637810745E0,1.252900064E-1,2.413200028E-2,1.044026017E0,1.051793831E0
3.642821745E0,1.280210018E-1,-7.318799943E-2,1.106966019E0,1.116745104E0
3.647832503E0,1.596339941E-1,-1.622429937E-1,1.110492945E0,1.133578573E0
3.652843272E0,1.685169935E-1,-2.398049980E-1,1.066102982E0,1.105658167E0
3.657854116E0,1.430220008E-1,-2.843649983E-1,9.954800010E-1,1.045131177E0
3.662864887E0,1.028179973E-1,-3.225370049E-1,9.130780101E-1,9.738136950E-1
3.667875885E0,4.335299879E-2,-3.384299874E-1,7.713450193E-1,8.434378921E-1
3.672886657E0,-4.499999923E-4,-3.209350109E-1,6.352210045E-1,7.116917930E-1
3.677897501E0,-4.352400079E-2,-2.968640029E-1,4.857690036E-1,5.709589300E-1
3.682908276E0,-7.217700034E-2,-2.735019922E-1,3.134880066E-1,4.222411508E-1
3.687919274E0,-9.179999679E-2,-2.533620000E-1,1.256279945E-1,2.973246298E-1
3.692930142E0,-1.144950017E-1,-2.103569955E-1,-1.547999959E-2,2.399975028E-1
3.697940911E0,-1.356620044E-1,-1.428059936E-1,-1.693740040E-1,2.597792995E-1
3.702951690E0,-1.651500016E-1,-7.912500203E-2,-3.121879995E-1,3.619345742E-1
3.707962688E0,-1.823559999E-1,-7.412000094E-3,-4.318929911E-1,4.688712021E-1
3.712973536E0,-1.859589964E-1,6.103599817E-2,-5.047670007E-1,5.413832897E-1
3.717984300E0,-2.117780000E-1,1.080740020E-1,-5.622559786E-1,6.104602335E-1
3.722995298E0,-2.412520051E-1,1.420630068E-1,-5.593249798E-1,6.254829021E-1
3.728006074E0,-2.699820101E-1,1.689819992E-1,-4.724940062E-1,5.698208382E-1
3.733016844E0,-2.631849945E-1,2.127259970E-1,-3.544259965E-1,4.900372212E-1
3.738027599E0,-2.378419936E-1,2.384970039E-1,-1.840309948E-1,3.838190222E-1
3.743038443E0,-1.982810050E-1,2.142519951E-1,-9.758999571E-3,2.920864811E-1
3.748049448E0,-5.569899827E-2,1.786839962E-1,1.777160019E-1,2.580955758E-1
3.753060219E0,1.972800046E-1,2.167440057E-1,2.074420005E-1,3.590676089E-1
3.758070988E0,2.557660043E-1,1.805370003E-1,3.105030060E-1,4.409330722E-1
3.763081833E0,2.564449906E-1,7.396599650E-2,3.929989934E-1,4.750612704E-1
3.768092833E0,2.689470053E-1,-1.331999991E-2,3.884269893E-1,4.726366893E-1
3.773103604E0,2.999120057E-1,-8.477000147E-2,3.306970000E-1,4.544157459E-1
3.778114438E0,3.040379882E-1,-1.502220035E-1,2.438420057E-1,4.176896843E-1
3.783125209E0,3.183560073E-1,-1.614259928E-1,1.238730028E-1,3.778272349E-1
3.788136192E0,3.116610050E-1,-1.593420058E-1,1.398000028E-2,3.503111435E-1
3.793146963E0,2.701860070E-1,-1.306529939E-1,-1.188760027E-1,3.228036357E-1
3.798157808E0,2.087830007E-1,-1.152539998E-1,-2.295269966E-1,3.309931541E-1
3.803168560E0,1.209660023E-1,-8.260499686E-2,-3.607620001E-1,3.893656122E-1
3.808179558E0,-2.957499959E-2,-6.017199904E-2,-4.364399910E-1,4.415599799E-1
3.813190334E0,-1.850959957E-1,-4.222299904E-2,-4.569180012E-1,4.947902273E-1
3.818201178E0,-3.129679859E-1,-3.997100145E-2,-4.631949961E-1,5.604429013E-1
3.823211936E0,-3.817409873E-1,-1.337500010E-2,-4.742000103E-1,6.089094529E-1
3.828222934E0,-4.213219881E-1,-7.519000210E-3,-4.973190129E-1,6.518396686E-1
3.833233709E0,-3.954809904E-1,-1.732699946E-2,-5.279999971E-1,6.599162338E-1
3.838244553E0,-3.434740007E-1,-5.819100142E-2,-5.238490105E-1,6.291091857E-1
3.843255324E0,-2.407920063E-1,-7.559899986E-2,-4.943479896E-1,5.550458844E-1
3.848266312E0,-1.655199975E-1,-8.421599865E-2,-4.584980011E-1,4.946813328E-1
3.853277083E0,-1.003300026E-1,-8.386600018E-2,-3.756990135E-1,3.978056864E-1
3.858287928E0,-1.467400044E-2,-6.555599719E-2,-2.816410065E-1,2.895420031E-1
3.863298679E0,7.030899823E-2,-5.832999945E-2,-2.264270037E-1,2.441616925E-1
3.868309677E0,1.198289990E-1,-6.690900028E-2,-1.980630010E-1,2.409662958E-1
3.873320448E0,1.440739930E-1,-8.842699975E-2,-1.560519934E-1,2.300627618E-1
3.878331288E0,1.484760046E-1,-1.110330001E-1,-1.027010009E-1,2.119456219E-1
3.883342060E0,1.084159985E-1,-1.436239928E-1,-1.906099916E-2,1.809563531E-1
3.888353038E0,5.809900165E-2,-1.348769963E-1,4.526299983E-2,1.536751030E-1
3.893363886E0,4.944499955E-2,-1.001309976E-1,9.066899866E-2,1.438467656E-1
3.898374646E0,3.496100008E-2,-5.640099943E-2,1.316699982E-1,1.474460331E-1
3.903385415E0,3.818599880E-2,-2.085199952E-2,1.181780025E-1,1.259325878E-1
3.908396408E0,4.447500035E-2,1.345700026E-2,8.617900312E-2,9.790779893E-2
3.913407179E0,7.434699684E-2,3.421200067E-2,-7.304999977E-3,8.216629451E-2
3.918417934E0,1.013270020E-1,7.924500108E-2,-8.071800321E-2,1.518628578E-1
3.923428778E0,1.045660004E-1,1.296540052E-1,-1.341110021E-1,2.138456695E-1
3.928439778E0,1.101320013E-1,1.597850025E-1,-1.701949984E-1,2.581213711E-1
3.933450554E0,8.082500100E-2,1.677159965E-1,-2.130240053E-1,2.829144095E-1
3.938461398E0,2.452700026E-2,1.469199955E-1,-2.724030018E-1,3.104681211E-1
3.943472156E0,-5.365499854E-2,9.632500261E-2,-2.890929878E-1,3.094060772E-1
3.948483154E0,-1.346350014E-1,4.679799825E-2,-3.443399966E-1,3.726750186E-1
3.953493921E0,-1.702570021E-1,1.688000001E-2,-3.973590136E-1,4.326275151E-1
3.958504765E0,-1.809619963E-1,-3.045500070E-2,-3.890480101E-1,4.301547458E-1
3.963515536E0,-1.632899940E-1,-6.850100309E-2,-3.269090056E-1,3.717869115E-1
3.968526557E0,-1.412159950E-1,-1.042139977E-1,-2.302139997E-1,2.894840241E-1
3.973537328E0,-1.096189991E-1,-1.332409978E-1,-1.513890028E-1,2.295389261E-1
3.978548173E0,-3.115900047E-2,-1.446319968E-1,-1.139819995E-1,1.867650770E-1
3.983558958E0,4.909000173E-2,-1.390269995E-1,-8.415800333E-2,1.697672064E-1
3.988569956E0,1.037499979E-1,-1.190280020E-1,-4.972900078E-2,1.655436524E-1
3.993580727E0,1.595589966E-1,-7.794900239E-2,-1.281199977E-2,1.780428816E-1
3.998591576E0,1.750800014E-1,-1.618199982E-2,3.412000090E-2,1.791062211E-1
4.003602348E0,1.723169982E-1,6.167000160E-2,1.364929974E-1,2.283126701E-1
4.008613346E0,1.705320030E-1,1.292430013E-1,2.249460071E-1,3.104603414E-1
4.013624107E0,1.441390067E-1,1.675650030E-1,2.827199996E-1,3.588658268E-1
4.018634951E0,1.215559989E-1,1.976860017E-1,2.908830047E-1,3.721136097E-1
4.023645732E0,1.212819964E-1,2.051849961E-1,2.589739859E-1,3.519626836E-1
4.028656730E0,1.472000033E-1,2.371470034E-1,2.040289938E-1,3.457374329E-1
4.033667496E0,1.520770043E-1,2.414110005E-1,1.354579926E-1,3.158410267E-1
4.038678341E0,1.341760010E-1,2.491640002E-1,6.765700132E-2,2.909697029E-1
4.043689341E0,1.032849997E-1,2.420189977E-1,1.704099961E-2,2.636880393E-1
4.048700123E0,5.967799947E-2,2.062059939E-1,-5.732100084E-2,2.221892722E-1
4.053710967E0,5.750999786E-3,1.335690022E-1,-9.628999978E-2,1.647589645E-1
4.058721738E0,-7.118999958E-3,4.110400006E-2,-1.551630050E-1,1.606728885E-1
4.063732736E0,-1.739099994E-2,-7.288800180E-2,-2.199459970E-1,2.323603866E-1
4.068743512E0,-2.741000056E-2,-2.174839973E-1,-3.243860006E-1,3.915059063E-1
4.073754356E0,-5.123199895E-2,-3.496690094E-1,-4.349220097E-1,5.604018990E-1
4.078765142E0,-8.402100205E-2,-4.433380067E-1,-4.940100014E-1,6.690695020E-1
4.083776140E0,-1.212079972E-1,-4.846569896E-1,-5.014140010E-1,7.078133769E-1
4.088786911E0,-1.721320003E-1,-4.629450142E-1,-4.756129980E-1,6.856786679E-1
4.093797680E0,-2.020190060E-1,-4.027760029E-1,-3.972809911E-1,6.007265378E-1
4.098808525E0,-2.280360013E-1,-3.118639886E-1,-2.877449989E-1,4.817226896E-1
4.103819296E0,-2.109660059E-1,-2.189130038E-1,-1.471990049E-1,3.377826312E-1
4.108830289E0,-1.797859967E-1,-1.520110071E-1,1.204400044E-2,2.357443718E-1
4.113841060E0,-1.596589983E-1,-1.014999971E-1,1.613650024E-1,2.486602283E-1
4.118851904E0,-1.496089995E-1,-1.000540033E-1,2.909109890E-1,3.420860416E-1
4.123862666E0,-1.370359957E-1,-1.331949979E-1,3.767780066E-1,4.224706354E-1
4.128873664E0,-1.216119975E-1,-1.660999954E-1,3.740670085E-1,4.269716773E-1
4.133884435E0,-7.587499917E-2,-1.638080031E-1,3.859609962E-1,4.260938487E-1
4.138895270E0,-2.628999949E-2,-1.653199941E-1,3.122830093E-1,3.543198307E-1
4.143906041E0,1.981000043E-2,-1.893370003E-1,2.126149982E-1,2.853875843E-1
4.148917039E0,6.900300086E-2,-1.550610065E-1,1.996130049E-1,2.620127509E-1
4.153927824E0,9.579999745E-2,-1.268929988E-1,1.727800071E-1,2.348029036E-1
4.158938669E0,9.869399667E-2,-7.878900319E-2,1.562950015E-1,2.009386461E-1
4.163949426E0,7.611399889E-2,-8.802999742E-3,1.385180056E-1,1.582974147E-1
4.168960424E0,4.052999988E-2,7.424999960E-3,8.317399770E-2,9.282093195E-2
4.173971180E0,1.767800003E-2,-1.023699995E-2,1.616399921E-2,2.604962042E-2
4.178982024E0,-2.362000057E-3,-2.316899970E-2,-1.964999922E-2,3.047136460E-2
4.183992776E0,-1.500099991E-2,1.718300022E-2,-8.807799965E-2,9.098362225E-2
4.189003775E0,-1.927000005E-3,3.970599920E-2,-1.440930068E-1,1.494759992E-1
4.194014546E0,1.520300005E-2,6.111099944E-2,-2.092249990E-1,2.184966491E-1
4.199025404E0,4.778299853E-2,3.068700060E-2,-2.318499982E-1,2.387034324E-1
4.204036404E0,5.141400173E-2,-6.016000174E-3,-2.597250044E-1,2.648332867E-1
4.209047175E0,1.308299974E-2,-6.232000142E-2,-2.453150004E-1,2.534450569E-1
4.214057944E0,-3.546699882E-2,-1.189159974E-1,-2.316830009E-1,2.628230115E-1
4.219068789E0,-1.168750003E-1,-1.781589985E-1,-2.258470058E-1,3.104951924E-1
4.224079560E0,-1.746319979E-1,-2.562679946E-1,-2.114319950E-1,3.753306653E-1
4.229090558E0,-2.330700010E-1,-2.968010008E-1,-1.856109947E-1,4.205519003E-1
4.234101329E0,-2.554369867E-1,-3.055739999E-1,-1.648470014E-1,4.310429879E-1
4.239112173E0,-2.197560072E-1,-2.789269984E-1,-1.345150024E-1,3.797199744E-1
4.244123162E0,-1.671800017E-1,-2.343129963E-1,-1.230679974E-1,3.130454682E-1
4.249133934E0,-9.348899871E-2,-1.863449961E-1,-1.209030002E-1,2.410024604E-1
4.254144708E0,-1.091699954E-2,-1.517570019E-1,-1.424320042E-1,2.084136376E-1
4.259155552E0,6.400399655E-2,-1.183080003E-1,-1.470829993E-1,1.993155869E-1
4.264166538E0,1.198059991E-1,-6.450600177E-2,-1.180090010E-1,1.801128147E-1
4.269177309E0,1.549919993E-1,-6.928999908E-3,-7.430399954E-2,1.720221359E-1
4.274188139E0,1.820829958E-1,3.821000084E-2,-3.050399944E-2,1.885330621E-1
4.279198911E0,1.621000022E-1,4.299699888E-2,-3.495000070E-3,1.677419674E-1
4.284209909E0,1.312980056E-1,3.178500012E-2,2.092500031E-2,1.367015294E-1
4.289220661E0,8.311299980E-2,2.566800080E-2,1.673999988E-2,8.858241697E-2
4.294231430E0,2.489699982E-2,7.865999825E-3,-1.361699961E-2,2.944753354E-2
4.299242274E0,-4.100900143E-2,-4.930200055E-2,-5.390800163E-2,8.377647699E-2
4.304253055E0,-1.074919999E-1,-9.343700111E-2,-8.009299636E-2,1.634010137E-1
4.309264053E0,-1.329240054E-1,-1.477610022E-1,-6.640499830E-2,2.095512557E-1
4.314274825E0,-1.392090023E-1,-1.981379986E-1,-5.346700177E-2,2.479849452E-1
4.319285692E0,-9.170600027E-2,-2.448589951E-1,-5.329100043E-2,2.668442405E-1
4.324296463E0,-1.529700030E-2,-2.858600020E-1,-6.346199661E-2,2.932189694E-1
4.329307480E0,6.122000143E-2,-2.790560126E-1,-4.283799976E-2,2.888862077E-1
4.334318251E0,1.335099936E-1,-2.623260021E-1,1.802599989E-2,2.948979255E-1
4.339329086E0,1.976799965E-1,-2.247650027E-1,3.841700032E-2,3.017822947E-1
4.344339857E0,2.405149937E-1,-1.787150055E-1,3.304300085E-2,3.014603710E-1
4.349350855E0,2.581009865E-1,-1.196099967E-1,2.606900036E-2,2.856610987E-1
4.354361703E0,2.676140070E-1,-7.845199853E-2,-1.360500045E-2,2.792079312E-1
4.359372472E0,2.367459983E-1,-6.649400294E-2,-7.657299936E-2,2.575529933E-1
4.364383241E0,1.781470031E-1,-9.968800098E-2,-1.678989977E-1,2.643182280E-1
4.369394244E0,8.543500304E-2,-2.072740048E-1,-2.835640013E-1,3.614833270E-1
4.374405093E0,-4.111300036E-2,-2.048400044E-1,-3.697929978E-1,4.247311708E-1
4.379415862E0,7.253999822E-3,-2.392200008E-2,-5.062140226E-1,5.068308587E-1
4.384426631E0,1.339550018E-1,2.334699966E-2,-4.569819868E-1,4.767825093E-1
4.389437629E0,2.116869986E-1,8.372800052E-2,-3.035520017E-1,3.794279658E-1
4.394448410E0,2.081360072E-1,1.835130006E-1,-2.571780086E-1,3.783360239E-1
4.399459180E0,1.888609976E-1,2.033230066E-1,-3.321970105E-1,4.328551435E-1
4.404470024E0,1.955309957E-1,1.640229970E-1,-3.884690106E-1,4.648054281E-1
4.409481033E0,1.479980052E-1,1.327629983E-1,-4.139139950E-1,4.591886524E-1
4.414491881E0,1.129589975E-1,9.476900101E-2,-4.921289980E-1,5.137429799E-1
4.419502636E0,4.544299841E-2,7.843700051E-2,-5.534880161E-1,5.608622051E-1
4.424513634E0,-3.071100079E-2,7.194399834E-2,-5.861039758E-1,5.913010865E-1
4.429524419E0,-1.154860035E-1,7.269100100E-2,-6.114119887E-1,6.264548017E-1
4.434535264E0,-1.903070062E-1,2.538000047E-2,-5.778779984E-1,6.089366815E-1
4.439546051E0,-2.560879886E-1,-3.065000055E-3,-4.975729883E-1,5.596153418E-1
4.444557049E0,-2.483019978E-1,-1.208000001E-3,-3.754369915E-1,4.501202905E-1
4.449567815E0,-1.876360029E-1,-4.847300053E-2,-1.815340072E-1,2.655400104E-1
4.454578584E0,-1.631370038E-1,-1.341329962E-1,5.519200116E-2,2.182922345E-1
4.459589429E0,-1.310240030E-1,-1.152670011E-1,2.956500053E-1,3.433113697E-1
4.464600195E0,-9.044700116E-2,-1.006369963E-1,4.663169980E-1,4.855512410E-1
4.469611193E0,-3.668399900E-2,-9.298799932E-2,6.104249954E-1,6.185557039E-1
4.474621964E0,1.851399988E-2,-8.349200338E-2,7.044280171E-1,7.096002495E-1
4.479632808E0,7.297600061E-2,-8.438999951E-2,7.628470063E-1,7.709622064E-1
4.484643579E0,1.245189980E-1,-8.431600034E-2,7.500939965E-1,7.650197203E-1
4.489654577E0,1.664890051E-1,-7.923500240E-2,6.594079733E-1,6.847011389E-1
4.494665455E0,1.756329983E-1,-7.824300230E-2,5.720250010E-1,6.034745391E-1
4.499676224E0,1.460079998E-1,-5.063100159E-2,4.811289907E-1,5.053384410E-1
4.504686993E0,1.203619987E-1,-1.936999965E-3,3.463230133E-1,3.666475041E-1
4.509697991E0,9.373900294E-2,5.324700102E-2,1.987839937E-1,2.261356229E-1
4.514708762E0,6.578499824E-2,1.311700046E-1,5.064500123E-2,1.552357957E-1
4.519719592E0,3.884600103E-2,1.728390008E-1,-1.008680016E-1,2.038545701E-1
4.524730592E0,2.194900066E-2,1.817409992E-1,-2.347999960E-1,2.977290506E-1
4.529741426E0,-1.328399964E-2,1.736499965E-1,-3.014920056E-1,3.481784246E-1
4.534752195E0,-5.031299964E-2,1.261910051E-1,-3.160440028E-1,3.440049119E-1
4.539762973E0,-7.746200264E-2,5.692100152E-2,-3.075860143E-1,3.222569137E-1
4.544773971E0,-9.069500118E-2,-7.679000031E-3,-2.571640015E-1,2.727963965E-1
4.549784742E0,-7.632300258E-2,-6.099199876E-2,-2.220569998E-1,2.425995379E-1
4.554795512E0,-5.617100000E-2,-7.291600108E-2,-1.731330007E-1,1.960789647E-1
4.559806366E0,-6.914000027E-3,-9.108100086E-2,-1.249449998E-1,1.547733992E-1
4.564817366E0,4.755999893E-2,-1.152769998E-1,-8.236400038E-2,1.494475451E-1
4.569828137E0,1.071439981E-1,-9.825400263E-2,7.519000210E-3,1.455686118E-1
4.574839000E0,1.536100060E-1,-5.247300118E-2,1.067899987E-1,1.943027370E-1
4.579849772E0,2.132329941E-1,4.991999827E-3,1.964489967E-1,2.899748922E-1
4.584860756E0,2.582080066E-1,5.480400100E-2,2.551859915E-1,3.671440364E-1
4.589871527E0,2.868959904E-1,8.972500265E-2,2.592110038E-1,3.969259753E-1
4.594882286E0,2.882399857E-1,1.052839980E-1,2.467990071E-1,3.937978663E-1
4.599893130E0,2.746219933E-1,1.183869988E-1,2.346879989E-1,3.801462580E-1
4.604903906E0,2.511749864E-1,1.006589979E-1,1.868769974E-1,3.288527326E-1
4.609914904E0,2.297250032E-1,5.277099833E-2,1.269689947E-1,2.677302392E-1
4.614925738E0,1.773409992E-1,7.499999832E-3,1.947800070E-2,1.785650372E-1
4.619936736E0,1.036159992E-1,-2.575599961E-2,-6.133000180E-2,1.231300773E-1
4.624947507E0,2.497499995E-2,-5.403700098E-2,-1.227469966E-1,1.364205749E-1
4.629958347E0,-5.448200181E-2,-6.064999849E-2,-1.241609976E-1,1.485350604E-1
4.634969118E0,-1.351049989E-1,-8.536399901E-2,-6.603000313E-2,1.729171315E-1
4.639980130E0,-2.513689995E-1,-2.170599997E-1,-6.629800051E-2,3.386692225E-1
4.644990902E0,-2.444339991E-1,-4.018990099E-1,-6.145299971E-2,4.743914684E-1
4.650001671E0,-1.815620065E-1,-3.954870105E-1,1.709800027E-2,4.355078406E-1
4.655012534E0,-1.037970036E-1,-1.901780069E-1,1.735920012E-1,2.776250622E-1
4.660023305E0,-1.699299924E-2,-4.509500042E-2,3.380639851E-1,3.414814477E-1
4.665034079E0,7.873999886E-3,2.206699923E-2,4.529229999E-1,4.535286056E-1
4.670045077E0,-3.854700178E-2,1.287699938E-1,4.525170028E-1,4.720584927E-1
4.675055916E0,-8.461699635E-2,1.238029972E-1,3.766539991E-1,4.054077617E-1
4.680066914E0,-7.526399940E-2,5.890100077E-2,2.985070050E-1,3.134332936E-1
4.685077676E0,-4.506000131E-2,7.712999824E-3,1.990060061E-1,2.041893351E-1
4.690088445E0,-6.395999808E-3,-2.544100024E-2,9.025199711E-2,9.398710704E-2
4.695099289E0,3.584299982E-2,-5.012600124E-2,-3.734299913E-2,7.205439765E-2
4.700110069E0,5.616300181E-2,-7.358600199E-2,-1.931940019E-1,2.142267603E-1
4.705121068E0,2.262800001E-2,-9.301999956E-2,-3.389559984E-1,3.522157231E-1
4.710131839E0,-6.323400140E-2,-1.635539979E-1,-4.395160079E-1,4.732047869E-1
4.715142683E0,-1.538159996E-1,-1.781570017E-1,-4.946210086E-1,5.477674883E-1
4.720153683E0,-1.213049963E-1,-3.346529901E-1,-6.043720245E-1,7.014079198E-1
4.725164445E0,-6.385400146E-2,-2.146060020E-1,-5.084589720E-1,5.555750136E-1
4.730175289E0,-1.164999977E-2,-2.860900015E-2,-4.688949883E-1,4.699113825E-1
4.735186061E0,2.663500048E-2,5.198099837E-2,-3.793300092E-1,3.838003431E-1
4.740196849E0,5.400199816E-2,1.857829988E-1,-2.915540040E-1,3.499075245E-1
4.745207618E0,5.951099843E-2,3.566569984E-1,-2.692239881E-1,4.508074192E-1
4.750218616E0,8.545699716E-2,4.027499855E-1,-2.421090007E-1,4.776266506E-1
4.755229387E0,1.404830068E-1,3.713060021E-1,-2.135349959E-1,4.507780129E-1
4.760240226E0,1.866090000E-1,3.483569920E-1,-1.738370061E-1,4.317346609E-1
4.765250998E0,2.382179946E-1,3.033359945E-1,-1.304260045E-1,4.071504404E-1
4.770262083E0,2.976360023E-1,2.488179952E-1,-5.726199970E-2,3.921434957E-1
4.775272854E0,3.460389972E-1,2.091539949E-1,8.380399644E-2,4.129303706E-1
4.780283618E0,3.378410041E-1,1.956010014E-1,2.312159985E-1,4.537148155E-1
4.785294616E0,2.982479930E-1,1.466320008E-1,3.824599981E-1,5.066837862E-1
4.790305387E0,2.238319963E-1,9.701400250E-2,4.568719864E-1,5.179232484E-1
4.795316246E0,1.296129972E-1,8.735000156E-3,4.783490002E-1,4.956748887E-1
4.800327017E0,8.802999742E-3,-7.788699865E-2,4.853999913E-1,4.916879385E-1
4.805338010E0,-1.268360019E-1,-1.349900067E-1,4.831610024E-1,5.174497343E-1
4.810348781E0,-2.193199992E-1,-1.331930012E-1,4.841049910E-1,5.479044441E-1
4.815359610E0,-2.745850086E-1,-1.066109985E-1,5.026869774E-1,5.826294098E-1
4.820370381E0,-2.937409878E-1,-9.833700210E-2,4.908959866E-1,5.804591316E-1
4.825381379E0,-3.030770123E-1,-1.105299965E-1,4.390569925E-1,5.448335509E-1
4.830392127E0,-2.934600115E-1,-1.311250031E-1,3.805609941E-1,4.981357396E-1
4.835402971E0,-2.838430107E-1,-1.551579982E-1,3.129630089E-1,4.500963275E-1
4.840413971E0,-2.947770059E-1,-1.826460063E-1,2.220579982E-1,4.117800401E-1
4.845424737E0,-2.791270018E-1,-2.135609984E-1,9.815599769E-2,3.649037997E-1
4.850435506E0,-2.611129880E-1,-2.033540010E-1,-1.771100052E-2,3.314310211E-1
4.855446365E0,-2.315970063E-1,-1.855899990E-1,-1.375460029E-1,3.271081227E-1
4.860457136E0,-2.006050050E-1,-1.413670033E-1,-2.326020002E-1,3.381282126E-1
4.865468129E0,-1.523099989E-1,-7.786999643E-2,-2.886629999E-1,3.355419491E-1
4.870478900E0,-9.900599718E-2,4.360000137E-3,-3.581869900E-1,3.716438038E-1
4.875489759E0,-5.287799984E-2,6.572800130E-2,-3.986069858E-1,4.074356172E-1
4.880500759E0,-7.027999964E-3,1.075420007E-1,-3.818230033E-1,3.967410749E-1
4.885511530E0,1.754299924E-2,1.521070004E-1,-3.009119928E-1,3.376274926E-1
4.890522300E0,3.328400105E-2,1.812369972E-1,-1.777579933E-1,2.560323770E-1
4.895533144E0,4.327899963E-2,1.673610061E-1,-3.190499917E-2,1.757859697E-1
4.900544149E0,5.745299906E-2,1.273429990E-1,9.596800059E-2,1.694902464E-1
4.905554920E0,4.356800020E-2,7.515499741E-2,1.870830059E-1,2.062680183E-1
4.910565693E0,3.963299841E-2,2.966699935E-2,2.821950018E-1,2.865046675E-1
4.915576538E0,3.623599932E-2,-2.767000115E-3,3.529779911E-1,3.548438616E-1
4.920587304E0,3.563300148E-2,-3.920700029E-2,4.067290127E-1,4.101650759E-1
4.925598073E0,2.616100013E-2,-6.098200008E-2,4.508819878E-1,4.557387071E-1
4.930609148E0,1.999500021E-2,-4.563099891E-2,4.550150037E-1,4.577342479E-1
4.935619910E0,1.280700043E-2,-3.666700050E-2,3.882809877E-1,3.902186741E-1
4.940630679E0,-4.656999838E-3,-2.490700036E-2,2.796210051E-1,2.807667231E-1
4.945641653E0,2.541000023E-3,-9.749999736E-4,1.672600061E-1,1.672821477E-1
4.950652425E0,1.037300006E-2,3.020199947E-2,3.689200059E-2,4.879323323E-2
4.955663269E0,3.492899984E-2,7.983600348E-2,-1.351639926E-1,1.608201710E-1
4.960674049E0,5.443299934E-2,1.294640005E-1,-2.583160102E-1,2.940255771E-1
4.965685047E0,8.967699856E-2,1.793680042E-1,-3.710770011E-1,4.217973278E-1
4.970695828E0,1.075169966E-1,2.116210014E-1,-4.380370080E-1,4.982165926E-1
4.975706673E0,1.476009935E-1,2.131679952E-1,-4.575549960E-1,5.259118004E-1
4.980717444E0,1.835760027E-1,1.968269944E-1,-4.659210145E-1,5.380737926E-1
4.985728413E0,1.784030050E-1,1.447899938E-1,-4.348390102E-1,4.918096576E-1
4.990739184E0,1.331830025E-1,1.005790010E-1,-3.476080000E-1,3.855971593E-1
4.995750028E0,7.480599731E-2,6.636700034E-2,-2.495130002E-1,2.688070930E-1
5.000760818E0,1.759799942E-2,3.897099942E-2,-1.593459994E-1,1.649835625E-1
5.005771816E0,-4.543799907E-2,1.329900045E-2,-7.454399765E-2,8.830788616E-2
5.010782665E0,-8.177900314E-2,1.438499987E-2,-1.381300017E-2,8.417560543E-2
5.015793450E0,-1.129819974E-1,-1.022600010E-2,1.079099998E-2,1.139559060E-1
5.020804219E0,-1.162120029E-1,-5.040600151E-2,7.541300356E-2,1.474215579E-1
5.025815217E0,-1.084629968E-1,-8.210600168E-2,1.895339936E-1,2.332997041E-1
5.030826089E0,-8.527100086E-2,-1.073900014E-1,3.601270020E-1,3.853507669E-1
5.035836859E0,-6.290200353E-2,-1.337489933E-1,5.371649861E-1,5.571280621E-1
5.040847857E0,-3.392799944E-2,-1.566990018E-1,7.184360027E-1,7.361086715E-1
5.045858613E0,-2.494999906E-3,-1.423089951E-1,8.259760141E-1,8.381494205E-1
5.050869457E0,4.092599824E-2,-9.921500087E-2,8.604440093E-1,8.671115539E-1
5.055880228E0,8.927900344E-2,-2.848099917E-2,8.438779712E-1,8.490653320E-1
5.060890992E0,1.424520016E-1,5.703499913E-2,7.527440190E-1,7.682246560E-1
5.065901990E0,1.677529961E-1,1.329360008E-1,5.778229833E-1,6.161918922E-1
5.070912839E0,1.796920002E-1,1.714619994E-1,3.737530112E-1,4.487535466E-1
5.075923852E0,1.599009931E-1,1.435309947E-1,1.517010033E-1,2.630259843E-1
5.080934623E0,4.841599986E-2,4.040100053E-2,3.856000025E-3,6.317609217E-2
5.085945377E0,1.518900041E-2,9.512899816E-2,-1.425299942E-1,1.720320647E-1
5.090956146E0,3.477500007E-2,8.985099941E-2,-4.288089871E-1,4.394993176E-1
5.095966991E0,6.735099852E-2,9.209199995E-2,-4.976510108E-1,5.105620647E-1
5.100977762E0,4.117099941E-2,1.224500015E-1,-5.970849991E-1,6.109006058E-1
5.105988760E0,-3.746800125E-2,1.566739976E-1,-7.267019749E-1,7.443429001E-1
5.110999526E0,-8.396799862E-2,1.858009994E-1,-8.224229813E-1,8.473205983E-1
5.116010370E0,-1.302410066E-1,1.830130070E-1,-8.517940044E-1,8.809140177E-1
5.121021137E0,-1.673920006E-1,1.542489976E-1,-8.346480131E-1,8.651301295E-1
5.126032135E0,-1.935530007E-1,1.171870008E-1,-7.595859766E-1,7.925695005E-1
5.131042907E0,-2.204419971E-1,4.620200023E-2,-6.795780063E-1,7.159298607E-1
5.136053741E0,-2.224600017E-1,-2.245000005E-2,-5.470860004E-1,5.910123068E-1
5.141064741E0,-2.116750032E-1,-1.425309926E-1,-3.938800097E-1,4.693216944E-1
5.146075522E0,-1.924719959E-1,-2.648839951E-1,-2.935310006E-1,4.397379315E-1
5.151086366E0,-1.698469967E-1,-4.035260081E-1,-1.816210002E-1,4.739909590E-1
5.156097152E0,-1.532240063E-1,-5.092509985E-1,-5.519799888E-2,5.346596999E-1
5.161108150E0,-1.401640028E-1,-5.709360242E-1,1.172899976E-1,5.994754665E-1
5.166118921E0,-9.082300216E-2,-5.926749706E-1,2.743330002E-1,6.593716960E-1
5.171129675E0,-4.300199822E-2,-5.873060226E-1,4.523380101E-1,7.425545175E-1
5.176140519E0,-3.089000005E-3,-5.487999916E-1,6.232849956E-1,8.304668316E-1
5.181151515E0,2.963300049E-2,-4.968859851E-1,8.019260168E-1,9.438533432E-1
5.186162286E0,5.374399945E-2,-4.466030002E-1,9.193419814E-1,1.023490272E0
5.191173140E0,8.392699808E-2,-3.871819973E-1,9.593830109E-1,1.037964066E0
5.196183911E0,1.038250029E-1,-3.243890107E-1,9.058009982E-1,9.677206776E-1
5.201194909E0,1.091549993E-1,-2.637459934E-1,7.518259883E-1,8.041884602E-1
5.206205680E0,1.184879988E-1,-2.009380013E-1,5.238839984E-1,5.734718215E-1
5.211216524E0,1.333680004E-1,-1.435430050E-1,2.483379990E-1,3.163279620E-1
5.216227295E0,1.459780037E-1,-8.593200147E-2,2.519699931E-2,1.712564604E-1
5.221238299E0,1.378719956E-1,-5.376299843E-2,-2.222909927E-1,2.670438777E-1
5.226249070E0,1.070469990E-1,-2.979600057E-2,-4.775170088E-1,4.902747753E-1
5.231259914E0,4.431400076E-2,-3.014999907E-3,-6.381750107E-1,6.397188173E-1
5.236270919E0,-4.007700086E-2,2.488099970E-2,-7.666739821E-1,7.681238344E-1
5.241281690E0,-1.132830009E-1,2.687400021E-2,-8.351969719E-1,8.432729286E-1
5.246292478E0,-1.969870031E-1,3.282999992E-2,-8.227859735E-1,8.466749356E-1
5.251303323E0,-2.331919968E-1,3.863099962E-2,-7.468469739E-1,7.833589624E-1
5.256314094E0,-2.304159999E-1,3.040900081E-2,-6.437680125E-1,6.844366255E-1
5.261325082E0,-1.757960021E-1,1.062399987E-2,-5.282350183E-1,5.568207416E-1
5.266335853E0,-8.474799991E-2,-2.276800014E-2,-3.838849962E-1,3.937871197E-1
5.271346688E0,-2.260999987E-3,-5.299099907E-2,-2.202270031E-1,2.265239303E-1
5.276357459E0,7.467000186E-2,-9.432700276E-2,-5.393999815E-2,1.318435286E-1
5.281368457E0,1.141330004E-1,-1.279910058E-1,1.154439971E-1,2.067253148E-1
5.286379243E0,1.243460029E-1,-1.472429931E-1,3.098779917E-1,3.649202614E-1
5.291390087E0,1.461260021E-1,-1.363150030E-1,5.131120086E-1,5.506528143E-1
5.296400858E0,1.448570043E-1,-1.312859952E-1,7.159069777E-1,7.421201822E-1
5.301411627E0,1.497959942E-1,-1.234790012E-1,8.541839719E-1,8.759658449E-1
5.306422625E0,1.519279927E-1,-1.322710067E-1,9.544770122E-1,9.755019738E-1
5.311433383E0,1.701789945E-1,-1.158059984E-1,1.007753015E0,1.028561159E0
5.316444227E0,2.089930028E-1,-1.077850014E-1,1.030794024E0,1.057275746E0
5.321454998E0,2.678770125E-1,-8.712700009E-2,1.040472031E0,1.077929151E0
5.326465981E0,3.488419950E-1,-5.902900174E-2,1.010583997E0,1.070726471E0
5.331476829E0,4.141240120E-1,-2.847000025E-3,9.416490197E-1,1.028693190E0
5.336487584E0,4.386610091E-1,7.360500097E-2,8.413779736E-1,9.517132296E-1
5.341498582E0,4.280200005E-1,1.184149981E-1,7.215459943E-1,8.472613849E-1
5.346509354E0,3.785350025E-1,1.298969984E-1,5.724760294E-1,6.984917913E-1
5.351520202E0,3.025420010E-1,1.394249946E-1,4.348199964E-1,5.477585424E-1
5.356530973E0,2.494889945E-1,1.275520027E-1,2.200759947E-1,3.562972287E-1
5.361541971E0,1.834270060E-1,1.132349968E-1,-2.377099916E-2,2.168702179E-1
5.366552752E0,1.064520031E-1,6.424000114E-2,-2.518750131E-1,2.808911336E-1
5.371563597E0,2.068899944E-2,1.675000042E-2,-4.595980048E-1,4.603682474E-1
5.376574378E0,-4.898799956E-2,-2.138900012E-2,-5.948730111E-1,5.972697990E-1
5.381585376E0,-8.123400062E-2,-3.217810094E-1,-8.066260219E-1,8.722313455E-1
5.386596147E0,-1.995220035E-1,-3.723880053E-1,-6.895760298E-1,8.087007835E-1
5.391606976E0,-2.388039976E-1,-1.808609962E-1,-4.283330142E-1,5.226922807E-1
5.396617747E0,-2.302040011E-1,-1.015099976E-2,-5.752810240E-1,6.197137900E-1
5.401628745E0,-1.594980061E-1,3.900200129E-2,-6.426860094E-1,6.633295386E-1
5.406639517E0,-1.085549966E-1,-5.208000075E-3,-5.586469769E-1,5.691201590E-1
5.411650347E0,-4.756899923E-2,6.113100052E-2,-3.680450022E-1,3.761076077E-1
5.416661118E0,6.073699892E-2,1.904210001E-1,-1.921209991E-1,2.772356734E-1
5.421672086E0,1.903100014E-1,3.087370098E-1,-3.097099997E-2,3.639995064E-1
5.426682857E0,3.161779940E-1,2.879700065E-1,1.210950017E-1,4.444763750E-1
5.431693702E0,3.439120054E-1,1.401059926E-1,2.014890015E-1,4.224961235E-1
5.436704697E0,2.946990132E-1,4.581800103E-2,2.926650047E-1,4.178511728E-1
5.441715545E0,2.552590072E-1,1.556299999E-2,2.053550035E-1,3.279787267E-1
5.446726222E0,2.279769927E-1,4.864500090E-2,-3.727800027E-2,2.360709525E-1
5.451736989E0,1.978649944E-1,1.069720015E-1,-2.344509959E-1,3.249012690E-1
5.456747845E0,1.390590072E-1,1.790059954E-1,-4.101549983E-1,4.686231711E-1
5.461758845E0,7.069899887E-2,2.416509986E-1,-5.647799969E-1,6.183607349E-1
5.466769617E0,-4.879000131E-3,2.629159987E-1,-7.014909983E-1,7.491583595E-1
5.471780461E0,-7.352499664E-2,2.230750024E-1,-8.212810159E-1,8.542077551E-1
5.476791461E0,-1.307229996E-1,4.473200068E-2,-9.167829752E-1,9.271356309E-1
5.481802227E0,-2.138659954E-1,-7.670599967E-2,-7.954679728E-1,8.272797411E-1
5.486812996E0,-2.231419981E-1,-1.583999954E-2,-5.662369728E-1,6.088247418E-1
5.491823831E0,-1.674389988E-1,-9.498000145E-3,-5.746420026E-1,5.986146185E-1
5.496834602E0,-9.323599935E-2,-7.731100172E-2,-5.683929920E-1,5.811544854E-1
5.501845615E0,-4.364499822E-2,-1.555709988E-1,-4.741739929E-1,5.009472997E-1
5.506856386E0,-2.922499925E-2,-2.074490041E-1,-4.080559909E-1,4.586925785E-1
5.511867230E0,-6.022100151E-2,-2.644920051E-1,-3.932279944E-1,4.777141880E-1
5.516878001E0,-8.675099909E-2,-3.078710139E-1,-3.602310121E-1,4.817433747E-1
5.521889013E0,-1.113990024E-1,-3.329890072E-1,-3.042330146E-1,4.645956778E-1
5.526899785E0,-1.245199963E-1,-3.456920087E-1,-3.012059927E-1,4.751139278E-1
5.531910629E0,-1.261270046E-1,-3.121500015E-1,-3.691830039E-1,4.996416067E-1
5.536921395E0,-1.150169969E-1,-2.840340137E-1,-3.678779900E-1,4.787885191E-1
5.541932384E0,-8.032499999E-2,-2.511900067E-1,-3.075320125E-1,4.051227762E-1
5.546943155E0,-5.054000020E-2,-2.577100098E-1,-2.103649974E-1,3.364850263E-1
5.551954004E0,-5.531299859E-2,-2.837519944E-1,-1.002359986E-1,3.059770866E-1
5.556965004E0,-5.171899870E-2,-2.755430043E-1,-7.615000010E-3,2.804581792E-1
5.561975775E0,-4.445800185E-2,-2.667930126E-1,7.720900327E-2,2.812761200E-1
5.566986559E0,-4.494800046E-2,-2.506980002E-1,1.546089947E-1,2.979492428E-1
5.571997328E0,-3.429599851E-2,-2.361499965E-1,2.887530029E-1,3.745948919E-1
5.577008186E0,1.319800038E-2,-1.887619942E-1,3.869239986E-1,4.307150547E-1
5.582019186E0,8.100199699E-2,-1.495880038E-1,4.326339960E-1,4.648764017E-1
5.587029958E0,1.431200057E-1,-1.137439981E-1,4.785700142E-1,5.122990256E-1
5.592040802E0,1.767120063E-1,-8.616500348E-2,4.844740033E-1,5.228447197E-1
5.597051573E0,2.105610073E-1,-6.470099837E-2,4.648450017E-1,5.143957937E-1
5.602062571E0,2.628700137E-1,6.856999826E-3,4.487420022E-1,5.201125331E-1
5.607073419E0,3.052229881E-1,7.814099640E-2,4.219569862E-1,5.266068609E-1
5.612084189E0,3.429110050E-1,1.044659987E-1,3.555200100E-1,5.048718449E-1
5.617094934E0,3.298279941E-1,9.124299884E-2,2.424830049E-1,4.194160205E-1
5.622105932E0,2.862670124E-1,2.809499949E-2,1.254480034E-1,3.138077961E-1
5.627116713E0,1.922129989E-1,-4.853700101E-2,-7.340999786E-3,1.983823774E-1
5.632127557E0,9.992399812E-2,-1.191900000E-1,-1.202649996E-1,1.966080660E-1
5.637138328E0,-5.694999825E-3,-1.180000007E-1,-1.746529937E-1,2.108556411E-1
5.642149311E0,-4.778200015E-2,-7.482799888E-2,-2.112389952E-1,2.291380851E-1
5.647160083E0,-7.691200078E-2,-4.535099864E-2,-3.039630055E-1,3.168054256E-1
5.652170937E0,-9.680999815E-2,-3.325999901E-2,-3.222239912E-1,3.380927443E-1
5.657181708E0,-1.060499996E-1,2.277000062E-2,-2.993749976E-1,3.184186938E-1
5.662192711E0,-9.763000160E-2,1.302669942E-1,-3.348979950E-1,3.723677941E-1
5.667203482E0,-6.511399895E-2,2.293249965E-1,-3.763540089E-1,4.455021065E-1
5.672214336E0,-3.285299987E-2,2.953160107E-1,-3.673549891E-1,4.724833899E-1
5.677225107E0,2.019000007E-3,2.939890027E-1,-3.732329905E-1,4.751173279E-1
5.682236115E0,2.759299986E-2,3.183420002E-1,-3.579109907E-1,4.797950396E-1
5.687246886E0,3.977200016E-2,3.490979970E-1,-3.569720089E-1,5.008794652E-1
5.692257730E0,4.591700062E-2,3.699280024E-1,-3.538360000E-1,5.139601276E-1
5.697268749E0,9.264200181E-2,3.698869944E-1,-3.279570043E-1,5.029460466E-1
5.702279520E0,1.507129967E-1,3.457170129E-1,-2.444719970E-1,4.494454558E-1
5.707290365E0,1.784339994E-1,3.053300083E-1,-1.583590060E-1,3.874824911E-1
5.712301150E0,1.722120047E-1,2.685759962E-1,-2.892600000E-2,3.203541068E-1
5.717312148E0,1.408759952E-1,1.858219951E-1,5.790799856E-2,2.402690080E-1
5.722322919E0,1.064350009E-1,8.611799777E-2,1.404069960E-1,1.961092641E-1
5.727333688E0,7.138899714E-2,-5.092999898E-3,2.023490071E-1,2.146332878E-1
5.732344532E0,4.023599997E-2,-9.724300355E-2,2.914249897E-1,3.098445773E-1
5.737355299E0,-1.481999992E-3,-1.506540030E-1,4.033859968E-1,4.306031669E-1
5.742366297E0,-3.719399869E-2,-1.758919954E-1,5.219730139E-1,5.520663138E-1
5.747377131E0,-4.837999865E-2,-1.789689958E-1,6.213300228E-1,6.483992003E-1
5.752387900E0,-3.298699856E-2,-1.824319959E-1,6.683840156E-1,6.936186037E-1
5.757398903E0,-3.773299977E-2,-1.897249967E-1,6.306009889E-1,6.596036392E-1
5.762409674E0,-5.962099880E-2,-1.731680036E-1,5.374580026E-1,5.678053588E-1
5.767420514E0,-9.109900147E-2,-1.597539932E-1,3.894439936E-1,4.306820063E-1
5.772431285E0,-1.067460030E-1,-1.215239987E-1,2.177509964E-1,2.712531803E-1
5.777442054E0,-9.817899764E-2,-8.919399977E-2,5.764000118E-2,1.446272965E-1
5.782453047E0,-8.710300177E-2,-6.960199773E-2,-1.102740020E-1,1.568174943E-1
5.787463818E0,-9.028500319E-2,-4.555099830E-2,-2.575129867E-1,2.766572131E-1
5.792474677E0,-9.142600000E-2,-9.417000227E-3,-3.820819855E-1,3.929809626E-1
5.797485677E0,-8.629199862E-2,1.836599968E-2,-4.608379900E-1,4.692070673E-1
5.802496449E0,-6.847500056E-2,5.507300049E-2,-4.895679951E-1,4.973918806E-1
5.807507321E0,-1.523500029E-2,7.089000195E-2,-4.646399915E-1,4.702635637E-1
5.812518092E0,8.614899963E-2,1.226349995E-1,-4.078820050E-1,4.345442707E-1
5.817528861E0,1.786489934E-1,1.676699966E-1,-3.289690018E-1,4.101820263E-1
5.822539845E0,2.558119893E-1,1.923809946E-1,-2.328290045E-1,3.958024334E-1
5.827550694E0,3.065910041E-1,1.928659976E-1,-1.004600003E-1,3.758823599E-1
5.832561468E0,3.138340116E-1,1.903920025E-1,-3.659999929E-4,3.670708860E-1
5.837572237E0,3.046259880E-1,1.520110071E-1,9.375300258E-2,3.531203256E-1
5.842583235E0,2.844269872E-1,1.295080036E-1,1.706569940E-1,3.560826359E-1
5.847594006E0,2.586260140E-1,8.891700208E-2,1.973190010E-1,3.372364697E-1
5.852604850E0,1.928749979E-1,3.930300102E-2,1.650200039E-1,2.568600638E-1
5.857615830E0,1.158969998E-1,2.734000050E-2,1.126990020E-1,1.639532106E-1
5.862626602E0,4.620699957E-2,1.928500086E-2,6.418599933E-2,8.140540878E-2
5.867637437E0,2.146000043E-3,-1.061999984E-2,1.409300044E-2,1.777645562E-2
5.872648208E0,-3.482000157E-2,-1.080109999E-1,-3.820160031E-1,3.985160414E-1
5.877659206E0,-4.316819906E-1,-1.840209961E-1,-3.191555977E0,3.225870831E0
5.882669977E0,-4.000729918E-1,-4.958200082E-2,-3.023309946E0,3.050068819E0
5.887680822E0,-2.464399934E-1,-1.926430017E-1,-2.519706011E0,2.539047534E0
5.892691588E0,-5.549599975E-2,-7.893499732E-2,-1.940971971E0,1.943368913E0
5.897702357E0,5.160399899E-2,1.538999975E-1,-1.219503045E0,1.230258452E0
5.902713355E0,9.732700139E-2,2.615959942E-1,-6.531890035E-1,7.103244918E-1
5.907724174E0,1.395359933E-1,2.761729956E-1,-9.783600271E-2,3.245207241E-1
5.912734943E0,1.630740017E-1,3.007659912E-1,4.507769942E-1,5.659091888E-1
5.917745699E0,1.375820041E-1,3.129580021E-1,8.305240273E-1,8.981323282E-1
5.922756697E0,9.091900289E-2,2.657020092E-1,1.045225024E0,1.082293479E0
5.927767482E0,3.615000099E-2,1.954170018E-1,1.158547997E0,1.175469306E0
5.932778326E0,-4.544400051E-2,1.452170014E-1,1.323971987E0,1.332687119E0
5.937789112E0,-2.282249928E-1,1.384699941E-1,1.603922963E0,1.625985688E0
5.942800110E0,-5.071340203E-1,1.410969943E-1,1.759498000E0,1.836552882E0
5.947810891E0,-8.052970171E-1,-1.442600042E-2,1.630494952E0,1.818577792E0
5.952821735E0,-8.094030023E-1,-2.844730020E-1,1.005992055E0,1.322149055E0
5.957832516E0,-7.034360170E-1,-5.132409930E-1,2.179470062E-1,8.976299040E-1
5.962843514E0,-7.185959816E-1,-7.020210028E-1,-5.080680251E-1,1.125764980E0
5.967854290E0,-8.810629845E-1,-8.549090028E-1,-1.153857946E0,1.684793621E0
5.972865134E0,-9.843479991E-1,-9.342949986E-1,-1.729841948E0,2.198681717E0
5.977875906E0,-1.007962942E0,-9.607539773E-1,-2.119643927E0,2.536124578E0
5.982886914E0,-1.014135003E0,-9.192100167E-1,-2.337985992E0,2.709168758E0
