"Time (s)","Linear Acceleration x (m/s^2)","Linear Acceleration y (m/s^2)","Linear Acceleration z (m/s^2)","Absolute acceleration (m/s^2)"
2.649248900E-2,1.468880028E-1,-1.186880022E-1,7.258579731E-1,7.500218159E-1
3.150333500E-2,4.575969875E-1,6.613899767E-2,8.138449788E-1,9.360090916E-1
3.651411000E-2,7.138389945E-1,1.835789979E-1,8.096500039E-1,1.094897478E0
4.152511000E-2,8.848099709E-1,2.811230123E-1,7.287080288E-1,1.180226344E0
4.653595300E-2,8.917819858E-1,2.932780087E-1,5.880810022E-1,1.107757359E0
5.154672200E-2,7.626019716E-1,2.496760041E-1,3.952789903E-1,8.945084428E-1
5.655772000E-2,5.193129778E-1,1.841589957E-1,1.770420074E-1,5.787437922E-1
6.156854400E-2,2.134740055E-1,7.617899776E-2,-5.035199970E-2,2.321846562E-1
6.657931400E-2,-1.259739995E-1,-4.957899824E-2,-2.611280084E-1,2.941349390E-1
7.159040200E-2,-4.806190133E-1,-1.405809969E-1,-4.338789880E-1,6.625772626E-1
7.660117400E-2,-7.395799756E-1,-2.368189991E-1,-5.461969972E-1,9.494171572E-1
8.161194300E-2,-8.880029917E-1,-3.256010115E-1,-5.757769942E-1,1.107286990E0
8.662294100E-2,-9.598150253E-1,-4.025270045E-1,-5.829030275E-1,1.192916096E0
9.163378900E-2,-9.477620125E-1,-4.845879972E-1,-5.967440009E-1,1.220320352E0
9.664455300E-2,-9.245600104E-1,-5.286970139E-1,-5.457659960E-1,1.196742356E0
1.016555510E-1,-8.499910235E-1,-5.292559862E-1,-3.379809856E-1,1.056800731E0
1.066663950E-1,-7.218189836E-1,-4.737469852E-1,5.428000167E-2,8.651041380E-1
1.116773930E-1,-5.496680140E-1,-4.365479946E-1,4.756799936E-1,8.479271983E-1
1.166881550E-1,-3.682920039E-1,-4.389519989E-1,9.169129729E-1,1.081224888E0
1.216989990E-1,-1.648370028E-1,-3.876799941E-1,1.339272976E0,1.403965498E0
1.267097790E-1,1.136699971E-2,-3.399569988E-1,1.651659012E0,1.686320688E0
1.317207770E-1,1.474409997E-1,-3.018569946E-1,1.846843958E0,1.877149195E0
1.367316250E-1,2.197269946E-1,-2.472999990E-1,1.819733977E0,1.849559134E0
1.417426230E-1,3.095879853E-1,-1.832869947E-1,1.656327963E0,1.694951670E0
1.467534720E-1,4.452860057E-1,-7.597000152E-2,1.454368949E0,1.522905154E0
1.517642270E-1,5.525529981E-1,7.928200066E-2,1.219845057E0,1.341500061E0
1.567752250E-1,6.153039932E-1,2.220160067E-1,9.571549892E-1,1.159325573E0
1.617859960E-1,5.625110269E-1,3.196099997E-1,6.449350119E-1,9.135153949E-1
1.667968250E-1,4.414129853E-1,3.364009857E-1,3.560810089E-1,6.593972488E-1
1.718075960E-1,2.446479946E-1,2.981590033E-1,7.556899637E-2,3.930166736E-1
1.768186710E-1,4.621599987E-2,2.233729959E-1,-1.499249935E-1,2.729632166E-1
1.818294630E-1,-1.332110018E-1,1.393260062E-1,-3.331899941E-1,3.849317851E-1
1.868404610E-1,-2.619149983E-1,2.468699962E-2,-5.298200250E-1,5.915388179E-1
1.918512510E-1,-3.814530075E-1,-8.666200191E-2,-6.971819997E-1,7.994244431E-1
1.968620950E-1,-4.836019874E-1,-1.820220053E-1,-8.049669862E-1,9.565431205E-1
2.018730950E-1,-5.558390021E-1,-2.469689995E-1,-8.584539890E-1,1.052090269E0
2.068839430E-1,-5.672289729E-1,-2.975580096E-1,-8.324390054E-1,1.050354309E0
2.118947120E-1,-5.410079956E-1,-3.379159868E-1,-7.302119732E-1,9.695805233E-1
2.169057100E-1,-5.015789866E-1,-3.375889957E-1,-5.897740126E-1,8.446189648E-1
2.219164670E-1,-4.466879964E-1,-3.370450139E-1,-4.161069989E-1,6.973338813E-1
2.269273110E-1,-3.882299960E-1,-3.148370087E-1,-2.043499947E-1,5.400035112E-1
2.319383110E-1,-3.255620003E-1,-3.048709929E-1,-1.149799954E-2,4.461716512E-1
2.369490680E-1,-2.630240023E-1,-3.095769882E-1,1.745630056E-1,4.421445243E-1
2.419599120E-1,-1.862919927E-1,-2.848860025E-1,3.284240067E-1,4.729979589E-1
2.469709120E-1,-1.047889963E-1,-2.392410040E-1,4.365940094E-1,5.087546764E-1
2.519817790E-1,2.350299992E-2,-1.782869995E-1,5.113160014E-1,5.420172493E-1
2.569925490E-1,1.814779937E-1,-1.121350005E-1,5.504549742E-1,5.903466771E-1
2.620035620E-1,3.059400022E-1,-4.321800172E-2,5.687659979E-1,6.472726172E-1
2.670143330E-1,3.589679897E-1,9.285000153E-3,5.310919881E-1,6.410951011E-1
2.720251770E-1,3.707650006E-1,5.192099884E-2,4.023149908E-1,5.495633062E-1
2.770361770E-1,3.634299934E-1,7.313700020E-2,2.540830076E-1,4.494313692E-1
2.820469480E-1,3.210889995E-1,8.279000223E-2,8.642599732E-2,3.426686199E-1
2.870580230E-1,2.516070008E-1,8.129599690E-2,-7.921600342E-2,2.760258995E-1
2.920687950E-1,1.580449939E-1,6.410899758E-2,-2.667610049E-1,3.166221998E-1
2.970796410E-1,4.998400062E-2,3.879100084E-2,-4.381560087E-1,4.427006099E-1
3.020903950E-1,-4.709799960E-2,2.412400022E-2,-6.125100255E-1,6.147916072E-1
3.071013930E-1,-1.410890073E-1,6.469999906E-3,-7.521550059E-1,7.653006741E-1
3.121122560E-1,-2.256039977E-1,-1.824600063E-2,-8.529549837E-1,8.824750900E-1
3.171230250E-1,-3.362640142E-1,-3.968900070E-2,-9.081379771E-1,9.692075575E-1
3.221340140E-1,-4.121969938E-1,-5.555399880E-2,-9.490919709E-1,1.036227860E0
3.271448630E-1,-4.452579916E-1,-8.223199844E-2,-9.692509770E-1,1.069796353E0
3.321558610E-1,-4.555180073E-1,-1.052889973E-1,-9.760980010E-1,1.082289118E0
3.371666220E-1,-4.577459991E-1,-1.525699943E-1,-9.583610296E-1,1.072970114E0
3.421773910E-1,-4.408769906E-1,-1.906220019E-1,-9.210579991E-1,1.038776735E0
3.471882350E-1,-4.430850148E-1,-1.981620044E-1,-8.520439863E-1,9.805975041E-1
3.521992300E-1,-3.806929886E-1,-1.754049957E-1,-7.327250242E-1,8.441445523E-1
3.572100780E-1,-2.837570012E-1,-1.271219999E-1,-5.563200116E-1,6.373146741E-1
3.622210760E-1,-1.647119969E-1,-8.396600187E-2,-3.399989903E-1,3.870137527E-1
3.672318430E-1,-2.583299950E-2,-1.750499941E-2,-8.351799846E-2,8.915730443E-2
3.722426870E-1,9.603299946E-2,5.267399922E-2,1.659830064E-1,1.988648928E-1
3.772536830E-1,2.001229972E-1,1.001039967E-1,3.684050143E-1,4.310362847E-1
3.822644540E-1,2.764289975E-1,1.080119982E-1,5.027819872E-1,5.838401400E-1
3.872752230E-1,2.936629951E-1,6.117099896E-2,6.429299712E-1,7.094637367E-1
3.922860630E-1,2.960709929E-1,4.251999781E-3,7.322379947E-1,7.898408657E-1
3.972970630E-1,2.562650144E-1,-6.853699684E-2,7.046880126E-1,7.529636596E-1
4.023078960E-1,1.492639929E-1,-1.361009926E-1,6.398450136E-1,6.709730704E-1
4.073188940E-1,4.380600154E-2,-1.609780043E-1,5.835080147E-1,6.068891883E-1
4.123297420E-1,-5.106399953E-2,-1.463389993E-1,5.431780219E-1,5.648583878E-1
4.173405070E-1,-1.101579964E-1,-1.005029976E-1,4.785830081E-1,5.012757049E-1
4.223512760E-1,-1.112380028E-1,-5.698300153E-2,4.108150005E-1,4.294064746E-1
4.273622740E-1,-9.322199970E-2,-1.603900082E-2,3.183250129E-1,3.320819246E-1
4.323731220E-1,-8.026699722E-2,6.492000073E-3,2.650890052E-1,2.770507491E-1
4.373838910E-1,-8.834099770E-2,2.484600060E-2,1.843709946E-1,2.059468846E-1
4.423949040E-1,-1.378300041E-1,1.849599928E-2,1.212999970E-1,1.845342821E-1
4.474057520E-1,-1.722050011E-1,2.785300091E-2,7.342100143E-2,1.892643535E-1
4.524167450E-1,-1.966920048E-1,3.619499877E-2,4.060100019E-2,2.040741628E-1
4.574275160E-1,-1.743309945E-1,5.246200040E-2,-2.257099934E-2,1.834475596E-1
4.624383700E-1,-1.226650029E-1,6.221000105E-2,-9.471199661E-2,1.669944594E-1
4.674493700E-1,-7.473199815E-2,5.583399907E-2,-2.020049989E-1,2.225046664E-1
4.724601270E-1,-3.718100116E-2,4.057800025E-2,-3.371750116E-1,3.416372190E-1
4.774709710E-1,-4.467999935E-2,2.865999937E-2,-4.617809951E-1,4.648218856E-1
4.824819570E-1,-5.220400169E-2,5.822199956E-2,-5.423439741E-1,5.479525940E-1
4.874928050E-1,2.087399922E-2,1.750240028E-1,-6.046649814E-1,6.298324103E-1
4.925035740E-1,1.788090020E-1,3.328070045E-1,-6.441829801E-1,7.467964068E-1
4.975145770E-1,3.888919950E-1,4.866240025E-1,-6.567659974E-1,9.051969282E-1
5.025253480E-1,6.129279733E-1,5.854560137E-1,-6.624680161E-1,1.075780329E0
5.075361930E-1,7.745990157E-1,6.284909844E-1,-6.878709793E-1,1.211681079E0
5.125471970E-1,8.553220034E-1,6.157490015E-1,-6.810889840E-1,1.254832565E0
5.175580450E-1,8.835570216E-1,5.795050263E-1,-6.638919711E-1,1.247898888E0
5.225688140E-1,7.915199995E-1,4.902330041E-1,-6.627140045E-1,1.142813265E0
5.275798170E-1,6.291909814E-1,3.612270057E-1,-6.516619921E-1,9.752074613E-1
5.325905880E-1,4.287039936E-1,2.073729932E-1,-6.476640105E-1,8.039025706E-1
5.376014270E-1,2.534489930E-1,2.466000058E-2,-6.180210114E-1,6.684268682E-1
5.426121990E-1,7.200600207E-2,-1.575970054E-1,-5.392479897E-1,5.664009841E-1
5.476231970E-1,-9.033200145E-2,-3.273429871E-1,-4.068000019E-1,5.299052209E-1
5.526340500E-1,-2.114129961E-1,-4.336940050E-1,-2.438250035E-1,5.405891020E-1
5.576450480E-1,-3.116149902E-1,-4.949109852E-1,-6.154900044E-2,5.880723296E-1
5.626558860E-1,-3.917480111E-1,-5.059319735E-1,1.029260010E-1,6.480952304E-1
5.676666550E-1,-4.271480143E-1,-5.061129928E-1,2.858130038E-1,7.213146752E-1
5.726776530E-1,-4.074589908E-1,-4.728310108E-1,4.731999934E-1,7.832689370E-1
5.776885170E-1,-3.827419877E-1,-4.333800077E-1,6.369919777E-1,8.602723057E-1
5.826992860E-1,-3.596110046E-1,-4.049580097E-1,7.631989717E-1,9.358331768E-1
5.877102740E-1,-3.144629896E-1,-3.665519953E-1,8.855350018E-1,1.008672185E0
5.927210450E-1,-2.195059955E-1,-3.025330007E-1,9.804900289E-1,1.049318729E0
5.977319030E-1,-9.883400053E-2,-2.581129968E-1,1.057422042E0,1.092946409E0
6.027429030E-1,4.957300052E-2,-2.425169945E-1,1.106457949E0,1.133808259E0
6.077537510E-1,1.812260002E-1,-1.990379989E-1,1.128203988E0,1.159872073E0
6.127645210E-1,3.228049874E-1,-1.026429981E-1,1.109086990E0,1.159660553E0
6.177755190E-1,4.464960098E-1,2.117099985E-2,9.711840153E-1,1.069114255E0
6.227862900E-1,5.180760026E-1,1.316290051E-1,7.531589866E-1,9.235677552E-1
6.277971340E-1,5.342400074E-1,1.824429929E-1,4.998779893E-1,7.540396776E-1
6.328081340E-1,4.752680063E-1,2.176740021E-1,2.494319975E-1,5.792046015E-1
6.378189820E-1,3.780820072E-1,2.216349989E-1,-1.293899957E-2,4.384466839E-1
6.428297510E-1,2.155459970E-1,1.845529974E-1,-2.259400040E-1,3.627240977E-1
6.478407490E-1,1.465199981E-2,1.203429997E-1,-3.785659969E-1,3.975038776E-1
6.528515980E-1,-2.168300003E-1,1.002699975E-2,-4.410299957E-1,4.915518760E-1
6.578623580E-1,-3.855830133E-1,-1.002829969E-1,-4.356859922E-1,5.903839627E-1
6.628733560E-1,-4.891029894E-1,-2.011349946E-1,-4.035890102E-1,6.652526659E-1
6.678842090E-1,-5.666869879E-1,-3.071739972E-1,-3.662909865E-1,7.413899740E-1
6.728952070E-1,-6.147990227E-1,-3.879449964E-1,-2.997300029E-1,7.863315033E-1
6.779059730E-1,-6.299440265E-1,-4.515079856E-1,-2.395589948E-1,8.112197295E-1
6.829168170E-1,-6.015030146E-1,-4.758090079E-1,-2.089450061E-1,7.948950271E-1
6.879278170E-1,-5.428950191E-1,-4.574060142E-1,-1.572239995E-1,7.271001647E-1
6.929385890E-1,-4.761509895E-1,-4.135609865E-1,-7.468199730E-2,6.350825577E-1
6.979494330E-1,-3.919459879E-1,-3.338350058E-1,-1.320500020E-2,5.150163498E-1
7.029604330E-1,-2.394430041E-1,-2.173549980E-1,2.759799920E-2,3.245578484E-1
7.079712040E-1,-7.399799675E-2,-4.165999964E-2,6.278499961E-2,1.056087840E-1
7.129820480E-1,7.419800013E-2,9.351299703E-2,7.537700236E-2,1.411797306E-1
7.179930180E-1,2.198140025E-1,2.262340039E-1,5.121700093E-2,3.195672095E-1
7.230038660E-1,3.886179924E-1,3.430370092E-1,4.475000128E-2,5.202892430E-1
7.280146360E-1,5.500010252E-1,4.190270007E-1,4.577200115E-2,6.929500928E-1
7.330256340E-1,6.324999928E-1,4.490630031E-1,7.772500068E-2,7.795864272E-1
7.380364820E-1,6.597269773E-1,4.461619854E-1,1.093939990E-1,8.039074878E-1
7.430472600E-1,6.243240237E-1,4.370920062E-1,1.314290017E-1,7.733715090E-1
7.480582580E-1,5.305309892E-1,4.083090127E-1,1.557150036E-1,6.873329198E-1
7.530690290E-1,3.988200128E-1,3.460719883E-1,1.701979935E-1,5.547887713E-1
7.580798600E-1,2.884410024E-1,2.694109976E-1,1.556500047E-1,4.242728149E-1
7.630908600E-1,1.402619928E-1,1.672939956E-1,1.762920022E-1,2.806057334E-1
7.681017080E-1,4.106000066E-3,4.713999853E-2,1.983979940E-1,2.039627484E-1
7.731125010E-1,-1.462550014E-1,-6.010900065E-2,2.388419956E-1,2.864421691E-1
7.781235760E-1,-2.522050142E-1,-1.507209986E-1,2.572900057E-1,3.905410806E-1
7.831343370E-1,-3.128449917E-1,-2.093690038E-1,2.566280067E-1,4.555933520E-1
7.881451060E-1,-3.387759924E-1,-2.493280023E-1,2.110439986E-1,4.706093870E-1
7.931558860E-1,-3.520349860E-1,-2.644110024E-1,1.353379935E-1,4.606063200E-1
7.981668840E-1,-3.204480112E-1,-2.257039994E-1,-3.081999952E-3,3.919677562E-1
8.031777320E-1,-2.759259939E-1,-1.346019953E-1,-1.486040056E-1,3.410806382E-1
8.081885010E-1,-2.030899972E-1,-2.722099982E-2,-2.894439995E-1,3.546327095E-1
8.131994990E-1,-1.218819991E-1,8.072999865E-2,-3.665319979E-1,3.946115303E-1
8.182103610E-1,-5.112500116E-2,1.849520057E-1,-4.422680140E-1,4.821016556E-1
8.232213590E-1,2.555900067E-2,2.700839937E-1,-4.624539912E-1,5.361551269E-1
8.282321300E-1,1.080669984E-1,3.209410012E-1,-4.423280060E-1,5.570777929E-1
8.332429750E-1,2.010989934E-1,3.533889949E-1,-3.635999858E-1,5.454626812E-1
8.382539750E-1,2.910979986E-1,3.471370041E-1,-2.650780082E-1,5.248890310E-1
8.432647460E-1,3.509179950E-1,3.242020011E-1,-1.777949929E-1,5.097660603E-1
8.482755850E-1,3.702000082E-1,2.970679998E-1,-7.059299946E-2,4.798758320E-1
8.532865850E-1,3.597080112E-1,2.403970063E-1,6.100500003E-2,4.369235447E-1
8.582973560E-1,3.088789880E-1,1.406829953E-1,1.809210032E-1,3.846171393E-1
8.633082000E-1,2.143470049E-1,6.309999735E-4,2.749199867E-1,3.486058459E-1
8.683191920E-1,7.969400287E-2,-1.554789990E-1,3.765709996E-1,4.151271745E-1
8.733300400E-1,-6.592400372E-2,-3.214269876E-1,4.123539925E-1,5.269697313E-1
8.783408230E-1,-2.013559937E-1,-4.747900069E-1,3.734970093E-1,6.367651080E-1
8.833518210E-1,-3.041610122E-1,-5.929039717E-1,3.178470135E-1,7.382924657E-1
8.883626690E-1,-3.806839883E-1,-6.044359803E-1,2.705929875E-1,7.638610595E-1
8.933734480E-1,-4.038789868E-1,-5.477129817E-1,1.800560057E-1,7.039374344E-1
8.983844460E-1,-4.101839960E-1,-4.529469907E-1,4.212800041E-2,6.125248202E-1
9.033952950E-1,-4.047699869E-1,-3.587369919E-1,-1.263779998E-1,5.554298970E-1
9.084062930E-1,-3.816129863E-1,-2.670350075E-1,-2.685520053E-1,5.376396061E-1
9.134170640E-1,-3.321349919E-1,-1.634909958E-1,-3.989849985E-1,5.442719794E-1
9.184279220E-1,-2.388399988E-1,-5.938800052E-2,-4.897249937E-1,5.480894536E-1
9.234386930E-1,-1.239679977E-1,5.236500129E-2,-5.863540173E-1,6.015988625E-1
9.284496720E-1,3.033499978E-2,1.373759955E-1,-6.325669885E-1,6.480226626E-1
9.334605200E-1,1.833879948E-1,2.066700011E-1,-6.219779849E-1,6.805881719E-1
9.384712900E-1,3.354429901E-1,2.613039911E-1,-5.838189721E-1,7.222509034E-1
9.434822640E-1,4.752750099E-1,2.908329964E-1,-4.972110093E-1,7.467857487E-1
9.484931120E-1,5.483149886E-1,2.868280113E-1,-4.099780023E-1,7.422948182E-1
9.535041100E-1,5.385710001E-1,2.811810076E-1,-3.074870110E-1,6.809329946E-1
9.585148850E-1,4.469479918E-1,2.547119856E-1,-2.440200001E-1,5.693737467E-1
9.635257290E-1,3.014630079E-1,2.075549960E-1,-2.193010002E-1,4.266754624E-1
9.685367290E-1,1.450649947E-1,1.239460036E-1,-1.645389944E-1,2.519514739E-1
9.735474860E-1,3.342799842E-2,4.841100052E-2,-1.226750016E-1,1.360522402E-1
9.785582560E-1,-3.508200124E-2,-7.846999913E-3,-7.928600162E-2,8.705511054E-2
9.835691140E-1,-9.905599803E-2,-5.022099987E-2,-2.690800093E-2,1.142728318E-1
9.885801140E-1,-1.490900069E-1,-9.128300101E-2,1.270000008E-3,1.748199913E-1
9.935909620E-1,-2.179629952E-1,-1.249329969E-1,-3.225199878E-2,2.532909639E-1
9.986017220E-1,-2.432660013E-1,-1.185140014E-1,-3.418000042E-2,2.727493141E-1
1.003612720E0,-2.734659910E-1,-7.465299964E-2,2.897300012E-2,2.849493873E-1
1.008623563E0,-3.153170049E-1,-2.934299968E-2,9.275600314E-2,3.299840926E-1
1.013634561E0,-3.537920117E-1,-8.713000454E-3,1.213200018E-1,3.741166219E-1
1.018645333E0,-3.697200119E-1,-2.646400034E-2,1.071360037E-1,3.858385075E-1
1.023656177E0,-3.428789973E-1,-6.049000099E-2,1.141830012E-1,3.664188925E-1
1.028666948E0,-2.881389856E-1,-8.934000134E-2,1.040970013E-1,3.191267719E-1
1.033677950E0,-2.016119957E-1,-9.223800153E-2,6.750600040E-2,2.317591548E-1
1.038688798E0,-9.979800135E-2,-1.238259971E-1,-1.250500046E-2,1.595270938E-1
1.043699544E0,1.698100008E-2,-1.694750041E-1,-1.242059991E-1,2.108014743E-1
1.048710542E0,1.178800017E-1,-2.029030025E-1,-2.340169996E-1,3.314050080E-1
1.053721390E0,2.258519977E-1,-1.586070061E-1,-3.126409948E-1,4.170248181E-1
1.058732388E0,3.515500128E-1,-7.069499791E-2,-3.505060077E-1,5.014375890E-1
1.063743236E0,4.612379968E-1,2.740300074E-2,-3.524990082E-1,5.811600166E-1
1.068754005E0,5.661919713E-1,1.615599990E-1,-3.017919958E-1,6.616293451E-1
1.073765013E0,6.615939736E-1,3.054519892E-1,-2.151249945E-1,7.597935686E-1
1.078775861E0,7.034869790E-1,4.077219963E-1,-1.095720008E-1,8.204493764E-1
1.083786859E0,6.561380029E-1,4.487729967E-1,4.076100141E-2,7.959747110E-1
1.088797631E0,5.383129716E-1,4.465390146E-1,2.213519961E-1,7.336038802E-1
1.093808400E0,3.686259985E-1,3.970580101E-1,4.010770023E-1,6.740941714E-1
1.098819244E0,2.117460072E-1,2.937679887E-1,5.796049833E-1,6.834310056E-1
1.103830244E0,5.135999992E-2,1.717099994E-1,6.905030012E-1,7.133838856E-1
1.108841087E0,-7.058200240E-2,3.949499875E-2,7.459959984E-1,7.503677123E-1
1.113851856E0,-1.412670016E-1,-6.344600022E-2,7.727310061E-1,7.880957864E-1
1.118862854E0,-1.738010049E-1,-1.331789941E-1,8.115789890E-1,8.405973407E-1
1.123873709E0,-1.917230040E-1,-1.848019958E-1,8.008120060E-1,8.439249711E-1
1.128884478E0,-1.830099970E-1,-2.072219998E-1,7.504780293E-1,7.997817756E-1
1.133895495E0,-1.779749990E-1,-2.220090032E-1,6.679509878E-1,7.260314180E-1
1.138906343E0,-1.505399942E-1,-2.178390026E-1,5.535129905E-1,6.135900517E-1
1.143917355E0,-9.429199994E-2,-1.950989962E-1,4.023990035E-1,4.570334316E-1
1.148928126E0,-1.709399931E-2,-1.470150054E-1,2.481649965E-1,2.889489265E-1
1.153938905E0,6.430300325E-2,-9.963899851E-2,8.827699721E-2,1.478365127E-1
1.158949750E0,1.197960004E-1,-9.019800276E-2,-9.673400223E-2,1.784495128E-1
1.163960740E0,1.222890019E-1,-7.563599944E-2,-3.064720035E-1,3.385269462E-1
1.168971588E0,1.332650036E-1,-7.439199835E-2,-5.031960011E-1,5.258326217E-1
1.173982586E0,1.771319956E-1,-6.691300124E-2,-6.588519812E-1,6.855209892E-1
1.178993415E0,2.473749965E-1,-5.275699869E-2,-7.645130157E-1,8.052688005E-1
1.184004184E0,3.214879930E-1,1.356299967E-2,-7.677729726E-1,8.324745173E-1
1.189014954E0,3.595800102E-1,9.234400094E-2,-6.809449792E-1,7.755715718E-1
1.194025952E0,3.558039963E-1,1.814669967E-1,-5.469359756E-1,6.772486368E-1
1.199036800E0,3.138650060E-1,2.477589995E-1,-4.086950123E-1,5.717756351E-1
1.204047560E0,2.371650040E-1,2.654590011E-1,-2.902300060E-1,4.592920386E-1
1.209058558E0,1.639180034E-1,2.352820039E-1,-1.752109975E-1,3.360440847E-1
1.214069396E0,4.563200101E-2,1.412789971E-1,-1.091429964E-1,1.842667311E-1
1.219080394E0,-5.312599987E-2,-3.673300147E-2,-7.604199648E-2,9.977008814E-2
1.224091237E0,-1.466609985E-1,-2.108740062E-1,-9.466800094E-2,2.737504801E-1
1.229102007E0,-2.141609937E-1,-3.977429867E-1,-1.341570020E-1,4.712350962E-1
1.234113005E0,-2.637209892E-1,-4.986549914E-1,-1.530230045E-1,5.844840464E-1
1.239123805E0,-3.009999990E-1,-4.988090098E-1,-1.264649928E-1,5.961583867E-1
1.244134649E0,-3.290100098E-1,-3.886449933E-1,-6.766899675E-2,5.136843491E-1
1.249145420E0,-2.876560092E-1,-2.244739980E-1,2.005999908E-3,3.648815964E-1
1.254156413E0,-1.694879979E-1,-5.926299840E-2,6.547199935E-2,1.911148009E-1
1.259167261E0,-1.775399968E-2,7.625800371E-2,9.136699885E-2,1.203262902E-1
1.264178254E0,8.120699972E-2,1.311859936E-1,6.730300188E-2,1.683271688E-1
1.269189026E0,1.177870035E-1,9.850300103E-2,4.270099849E-2,1.593737578E-1
1.274199860E0,1.030469984E-1,4.639099911E-2,4.358800128E-2,1.211227581E-1
1.279210631E0,6.385699660E-2,-3.120000008E-3,8.178599924E-2,1.038094412E-1
1.284221697E0,-1.767300069E-2,-3.163500130E-2,1.005650014E-1,1.068944702E-1
1.289232468E0,-8.506800234E-2,-4.171499982E-2,1.596239954E-1,1.856246916E-1
1.294243466E0,-1.203569993E-1,-2.419500053E-2,2.565169930E-1,2.843803317E-1
1.299254256E0,-1.522849947E-1,-1.087000011E-3,3.508200049E-1,3.824481364E-1
1.304265101E0,-1.784889996E-1,2.694899961E-2,4.165650010E-1,4.539944621E-1
1.309276095E0,-1.991620064E-1,7.907000370E-3,4.701170027E-1,5.106251283E-1
1.314286866E0,-1.819330007E-1,-3.670100123E-2,5.064389706E-1,5.393765022E-1
1.319297710E0,-1.392910033E-1,-8.385500312E-2,4.876070023E-1,5.139982819E-1
1.324308720E0,-1.042699963E-1,-1.270119995E-1,4.140729904E-1,4.454893057E-1
1.329319491E0,-7.904499769E-2,-1.574410051E-1,2.959010005E-1,3.443736108E-1
1.334330335E0,-7.526300102E-2,-1.563400030E-1,1.931650043E-1,2.596525269E-1
1.339341349E0,-7.636299729E-2,-1.031680033E-1,1.039540023E-1,1.651707566E-1
1.344352121E0,-7.063499838E-2,-5.073999986E-2,1.971000107E-3,8.699273202E-2
1.349362941E0,-4.459900036E-2,-1.259499975E-2,-6.317900121E-2,7.835362816E-2
1.354373941E0,1.985999942E-2,4.554000217E-3,-1.302729994E-1,1.318567892E-1
1.359384722E0,9.161400050E-2,-8.527999744E-3,-2.353889942E-1,2.527327254E-1
1.364395566E0,1.864629984E-1,-1.567400061E-2,-3.166759908E-1,3.678285025E-1
1.369406585E0,2.408380061E-1,-2.989099920E-2,-3.363159895E-1,4.147346885E-1
1.374417433E0,2.351559997E-1,-4.105899855E-2,-3.252409995E-1,4.034425526E-1
1.379428198E0,2.246669978E-1,-4.636900127E-2,-2.884120047E-1,3.685197805E-1
1.384439196E0,2.142689973E-1,-1.524399966E-2,-2.207330018E-1,3.080042870E-1
1.389450030E0,2.087620050E-1,6.881000008E-3,-1.581159979E-1,2.619725018E-1
1.394460799E0,2.198659927E-1,3.851300105E-2,-1.241990030E-1,2.554402050E-1
1.399471797E0,2.446970046E-1,6.072000042E-2,-8.331900090E-2,2.655289031E-1
1.404482568E0,2.807199955E-1,8.270999789E-2,-6.881199777E-2,3.006322515E-1
1.409493413E0,3.349429965E-1,9.710600227E-2,-7.821399719E-2,3.573986793E-1
1.414504408E0,3.582870066E-1,1.063340008E-1,-1.088780016E-1,3.892697241E-1
1.419515179E0,3.542619944E-1,7.989799976E-2,-1.848089993E-1,4.074795912E-1
1.424526023E0,3.189820051E-1,3.486299887E-2,-2.940140069E-1,4.352116548E-1
1.429537004E0,2.483550012E-1,-3.267199919E-2,-3.937520087E-1,4.666779516E-1
1.434547775E0,1.775140017E-1,-6.961999834E-2,-4.030799866E-1,4.459054166E-1
1.439558623E0,9.212800115E-2,-6.230900064E-2,-3.814429939E-1,3.973269909E-1
1.444569623E0,3.867299855E-2,-5.104599893E-2,-3.030360043E-1,3.097290989E-1
1.449580463E0,2.758000046E-2,-4.070800170E-2,-2.040479928E-1,2.098889735E-1
1.454591232E0,5.751100183E-2,-1.535000000E-2,-1.034889966E-1,1.193863906E-1
1.459602235E0,1.135900021E-1,-2.917500027E-2,2.860999899E-3,1.173117834E-1
1.464613083E0,1.581369936E-1,-7.214800268E-2,1.101140007E-1,2.057613574E-1
1.469623861E0,1.710270047E-1,-1.254960001E-1,1.661520004E-1,2.694549491E-1
1.474634859E0,1.417209953E-1,-1.679850072E-1,2.145339996E-1,3.071296796E-1
1.479645707E0,7.819599658E-2,-1.694999933E-1,2.727240026E-1,3.304893995E-1
1.484656700E0,2.767499909E-2,-1.262650043E-1,3.435089886E-1,3.670247705E-1
1.489667472E0,-1.944299974E-2,-5.388500169E-2,3.868640065E-1,3.910823228E-1
1.494678316E0,-9.774000384E-3,8.984999731E-3,3.930369914E-1,3.932611573E-1
1.499689087E0,3.658200055E-2,4.822300002E-2,3.808290064E-1,3.856091708E-1
1.504700085E0,1.094110012E-1,5.060999840E-2,3.806009889E-1,3.992358349E-1
1.509710933E0,1.549360007E-1,7.975099981E-2,3.261680007E-1,3.697985275E-1
1.514721922E0,1.600210071E-1,8.396500349E-2,2.747139931E-1,3.288230869E-1
1.519732694E0,1.188289970E-1,1.040479988E-1,2.360409945E-1,2.840099781E-1
1.524743768E0,5.356299877E-2,1.025040001E-1,2.170509994E-1,2.459414589E-1
1.529754536E0,-9.287999943E-3,1.151930019E-1,2.082259953E-1,2.381465090E-1
1.534765382E0,-3.953899816E-2,1.136799976E-1,2.044280022E-1,2.372283338E-1
1.539776159E0,-3.329600021E-2,9.335099906E-2,1.910180002E-1,2.151996958E-1
1.544786928E0,1.729000011E-3,8.224900067E-2,1.371250004E-1,1.599098286E-1
1.549797926E0,5.570799857E-2,2.791799977E-2,2.584600076E-2,6.745970332E-2
1.554808703E0,8.861599863E-2,-3.602899984E-2,-1.044510007E-1,1.416364910E-1
1.559819547E0,7.531899959E-2,-8.873700351E-2,-2.794620097E-1,3.027312708E-1
1.564830534E0,2.133700065E-2,-1.112660021E-1,-4.199559987E-1,4.349694606E-1
1.569841382E0,-4.470599815E-2,-1.202209964E-1,-5.308009982E-1,5.460782123E-1
1.574852380E0,-1.042309999E-1,-1.064599976E-1,-6.214600205E-1,6.390699411E-1
1.579863232E0,-1.134760007E-1,-1.338499933E-1,-7.238060236E-1,7.447736457E-1
1.584874001E0,-8.820199966E-2,-1.990569979E-1,-8.147320151E-1,8.433217284E-1
1.589885008E0,-4.393399879E-2,-2.449070066E-1,-8.895760179E-1,9.237181008E-1
1.594895857E0,-7.395000197E-3,-2.478799969E-1,-9.171159863E-1,9.500531097E-1
1.599906626E0,-6.756000221E-3,-2.148469985E-1,-8.686789870E-1,8.948787956E-1
1.604917395E0,-3.196100146E-2,-1.593970060E-1,-7.445709705E-1,7.621120924E-1
1.609928398E0,-3.583600000E-2,-7.437600195E-2,-5.569009781E-1,5.629873071E-1
1.614939246E0,-2.082400024E-2,4.058999941E-3,-3.868939877E-1,3.874752536E-1
1.619950234E0,3.656999907E-3,5.993999913E-2,-1.894669980E-1,1.987559319E-1
1.624961005E0,1.219699997E-2,1.010880023E-1,3.285099939E-2,1.069894349E-1
1.629971850E0,2.933800034E-2,1.111479998E-1,2.536650002E-1,2.784969092E-1
1.634982846E0,4.883899912E-2,7.809600234E-2,3.990449905E-1,4.095377124E-1
1.639993694E0,5.483099818E-2,3.026599996E-2,4.909270108E-1,4.949058486E-1
1.645004463E0,5.696099997E-2,-6.624000147E-3,5.607640147E-1,5.636884894E-1
1.650015461E0,5.559200048E-2,-4.944400117E-2,6.158800125E-1,6.203574531E-1
1.655026232E0,2.779399976E-2,-7.034599781E-2,6.210550070E-1,6.256439783E-1
1.660037085E0,-3.704800084E-2,-8.634100109E-2,5.982509851E-1,6.055836557E-1
1.665048085E0,-1.144739985E-1,-1.116629988E-1,5.499010086E-1,5.726814480E-1
1.670058934E0,-1.736810058E-1,-1.534750015E-1,4.639739990E-1,5.186439430E-1
1.675069932E0,-2.200469971E-1,-1.953209937E-1,3.548580110E-1,4.609719942E-1
1.680080689E0,-2.424039990E-1,-2.377019972E-1,2.082940042E-1,3.983068294E-1
1.685091458E0,-2.537089884E-1,-2.386299968E-1,6.532300264E-2,3.543721502E-1
1.690102302E0,-2.548849881E-1,-2.156440020E-1,-7.863000035E-2,3.430034543E-1
1.695113312E0,-2.562449872E-1,-1.340949982E-1,-1.967629939E-1,3.497979957E-1
1.700124160E0,-2.654139996E-1,-4.419700056E-2,-2.891960144E-1,3.950092414E-1
1.705134944E0,-2.570329905E-1,5.662199855E-2,-3.394849896E-1,4.295603183E-1
1.710145942E0,-2.459399998E-1,1.382769942E-1,-3.410980105E-1,4.426678929E-1
1.715156790E0,-2.156919986E-1,1.730169952E-1,-3.616139889E-1,4.552170865E-1
1.720167564E0,-1.944790035E-1,1.506319940E-1,-3.707300127E-1,4.449188945E-1
1.725178562E0,-1.473550051E-1,1.289229989E-1,-3.449310064E-1,3.966258141E-1
1.730189425E0,-1.143120006E-1,1.108840033E-1,-2.867839932E-1,3.280359042E-1
1.735200423E0,-8.996599913E-2,8.918400109E-2,-2.415360063E-1,2.727403700E-1
1.740211199E0,-3.674599901E-2,1.063589975E-1,-1.707800031E-1,2.045197160E-1
1.745222043E0,3.329199925E-2,1.330049932E-1,-1.220289990E-1,1.835477105E-1
1.750233058E0,9.183099866E-2,1.388420016E-1,-6.212700158E-2,1.776789184E-1
1.755243829E0,1.462029964E-1,1.502690017E-1,2.089099959E-2,2.106953319E-1
1.760254668E0,1.899410039E-1,1.367900074E-1,1.077179983E-1,2.576669522E-1
1.765265668E0,2.376070023E-1,9.869799763E-2,1.767099947E-1,3.121294675E-1
1.770276439E0,2.382950038E-1,5.046299845E-2,2.210139930E-1,3.289045578E-1
1.775287303E0,2.400390059E-1,-1.070200000E-2,2.360939980E-1,3.368584762E-1
1.780298303E0,2.383490056E-1,-6.831199676E-2,2.221499979E-1,3.329074931E-1
1.785309074E0,2.264180034E-1,-9.939800203E-2,1.845560074E-1,3.085546871E-1
1.790319923E0,1.647209972E-1,-1.372289956E-1,1.353970021E-1,2.535688315E-1
1.795330694E0,7.079199702E-2,-1.769199967E-1,7.957399637E-2,2.065047529E-1
1.800341692E0,-2.678300068E-2,-1.950230002E-1,3.405699879E-2,1.997778239E-1
1.805352550E0,-1.211149991E-1,-2.224330008E-1,-1.806900091E-2,2.539129214E-1
1.810363320E0,-2.380210012E-1,-2.401349992E-1,-5.030300096E-2,3.418321324E-1
1.815374342E0,-3.397929966E-1,-2.743360102E-1,-9.631799906E-2,4.472098881E-1
1.820385190E0,-4.247789979E-1,-3.086380064E-1,-1.608619988E-1,5.491549861E-1
1.825395968E0,-4.451720119E-1,-3.289090097E-1,-1.940989941E-1,5.865438401E-1
1.830406966E0,-4.404329956E-1,-3.049649894E-1,-1.958079934E-1,5.703732450E-1
1.835417829E0,-4.016529918E-1,-2.965080142E-1,-2.188539952E-1,5.451047601E-1
1.840428827E0,-3.718020022E-1,-2.864449918E-1,-2.179390043E-1,5.174793443E-1
1.845439579E0,-3.247799873E-1,-2.470549941E-1,-2.404589951E-1,4.736441054E-1
1.850450423E0,-2.360509932E-1,-1.735499948E-1,-2.030780017E-1,3.564833052E-1
1.855461423E0,-1.436699927E-1,-1.108630002E-1,-1.538829952E-1,2.379320235E-1
1.860472194E0,-6.832999736E-2,-4.658599943E-2,-8.095300198E-2,1.157265415E-1
1.865483038E0,-1.796999946E-3,-9.270999581E-3,-6.788399816E-2,6.853771113E-2
1.870494038E0,2.856599912E-2,3.207699955E-2,-8.080100268E-2,9.150820859E-2
1.875504824E0,4.023100063E-2,5.197700113E-2,-8.648200333E-2,1.086244860E-1
1.880515669E0,-8.117999882E-3,4.443699867E-2,-8.036399633E-2,9.218959094E-2
1.885526653E0,-6.137900054E-2,4.532000050E-2,-6.002299860E-2,9.707751807E-2
1.890537501E0,-1.030450016E-1,3.542999923E-2,-5.420299992E-2,1.217025982E-1
1.895548251E0,-1.241310015E-1,2.925999928E-3,-7.028000057E-2,1.426756654E-1
1.900559249E0,-1.300749928E-1,-3.768099844E-2,-7.976400107E-2,1.571676088E-1
1.905570020E0,-1.517409980E-1,-5.403700098E-2,-1.178909987E-1,1.996086560E-1
1.910580864E0,-1.822790056E-1,-3.723900020E-2,-1.317380071E-1,2.279633338E-1
1.915591864E0,-2.126220018E-1,-1.336100046E-2,-1.024079993E-1,2.363768819E-1
1.920602703E0,-2.382780015E-1,1.255699992E-2,-6.333799660E-2,2.468720034E-1
1.925613701E0,-2.569940090E-1,7.555000018E-3,-2.441200055E-2,2.582613879E-1
1.930624549E0,-2.574090064E-1,-2.299000043E-3,4.784000106E-3,2.574637229E-1
1.935635328E0,-2.420130074E-1,-1.752899960E-2,-1.816999982E-3,2.426537926E-1
1.940646097E0,-2.137300074E-1,-1.906000078E-2,1.151000033E-3,2.145812771E-1
1.945657095E0,-1.750490069E-1,-2.162499912E-2,-2.202799916E-2,1.777499034E-1
1.950667943E0,-1.400109977E-1,-2.536799945E-2,-7.120800018E-2,1.591137774E-1
1.955678941E0,-7.125300169E-2,7.046000101E-3,-1.317529976E-1,1.499516214E-1
1.960689713E0,-2.796900086E-2,4.212399945E-2,-2.154770046E-1,2.213301513E-1
1.965700482E0,8.901000023E-3,7.392100245E-2,-2.321120054E-1,2.437612058E-1
1.970711326E0,2.096600085E-2,1.012229994E-1,-1.988479942E-1,2.241120113E-1
1.975722307E0,2.779700048E-2,1.266420037E-1,-1.587740034E-1,2.049879374E-1
1.980733078E0,5.065400153E-2,1.384020001E-1,-1.288020015E-1,1.957316967E-1
1.985743926E0,6.859400123E-2,1.320240051E-1,-1.209200025E-1,1.917214696E-1
1.990754926E0,9.585399926E-2,1.426070035E-1,-1.323460042E-1,2.168875548E-1
1.995765766E0,1.135929972E-1,1.302309930E-1,-1.394820064E-1,2.220781634E-1
2.000776535E0,1.082089990E-1,1.140180007E-1,-1.469269991E-1,2.151669933E-1
2.005787518E0,8.471699804E-2,1.454100013E-1,-1.587820053E-1,2.313714836E-1
2.010798366E0,5.488799885E-2,1.675609946E-1,-1.395069957E-1,2.248367879E-1
2.015809135E0,1.876199991E-2,1.734090000E-1,-1.298359931E-1,2.174398285E-1
2.020820143E0,-4.947999958E-3,1.679600030E-1,-1.132339984E-1,2.026252297E-1
2.025830915E0,-5.353200063E-2,1.210739985E-1,-9.238100052E-2,1.614274991E-1
2.030841754E0,-9.163399786E-2,6.383799762E-2,-7.935199887E-2,1.369993402E-1
2.035852754E0,-1.266160011E-1,-1.170999953E-3,-6.471300125E-2,1.421997029E-1
2.040863616E0,-1.519149989E-1,-4.102800041E-2,-2.197699994E-2,1.588850283E-1
2.045874385E0,-1.747779995E-1,-6.813299656E-2,8.392999880E-3,1.877761880E-1
2.050885460E0,-1.883739978E-1,-8.278600127E-2,5.280100182E-2,2.124293550E-1
2.055896231E0,-2.089910060E-1,-9.949400276E-2,7.793299854E-2,2.442331866E-1
2.060907229E0,-1.968590021E-1,-1.160229966E-1,1.028029993E-1,2.505658778E-1
2.065918001E0,-1.735530049E-1,-1.209930032E-1,1.085690036E-1,2.377965115E-1
2.070928841E0,-9.993600100E-2,-1.028380021E-1,1.285839975E-1,1.926050451E-1
2.075939841E0,-4.017600045E-2,-5.484800041E-2,1.584080011E-1,1.723818696E-1
2.080950612E0,-1.015899982E-2,2.234300040E-2,1.937820017E-1,1.953301798E-1
2.085961456E0,-4.106999841E-3,9.346999973E-2,2.513569891E-1,2.682048551E-1
2.090972456E0,4.375800118E-2,1.893099993E-1,3.429870009E-1,3.941993421E-1
2.095983304E0,1.469700038E-1,2.620019913E-1,4.038850069E-1,5.033570544E-1
2.100994078E0,2.698349953E-1,3.208760023E-1,4.126940072E-1,5.882930197E-1
2.106004847E0,3.473429978E-1,3.161129951E-1,3.217799962E-1,5.693126994E-1
2.111015845E0,3.347299993E-1,2.603479922E-1,1.482339948E-1,4.492199536E-1
2.116026693E0,2.203390002E-1,1.807560027E-1,-3.601200134E-2,2.872609820E-1
2.121037691E0,6.926000118E-2,1.063349992E-1,-2.046809942E-1,2.408285473E-1
2.126048462E0,-9.973099828E-2,4.489799961E-2,-3.031400144E-1,3.222669246E-1
2.131059316E0,-2.101480067E-1,-3.159499913E-2,-3.586019874E-1,4.168402740E-1
2.136070316E0,-2.617290020E-1,-8.342300355E-2,-4.021399915E-1,4.870092820E-1
2.141081136E0,-2.934339941E-1,-1.323930025E-1,-4.624750018E-1,5.634842884E-1
2.146091905E0,-2.993159890E-1,-1.553439945E-1,-5.203400254E-1,6.200609325E-1
2.151102903E0,-2.992689908E-1,-1.432259977E-1,-5.397449732E-1,6.335615608E-1
2.156113737E0,-2.730929852E-1,-9.627500176E-2,-5.041329861E-1,5.813765752E-1
2.161124506E0,-2.240460068E-1,-4.537500069E-2,-4.281939864E-1,4.853922062E-1
2.166135504E0,-1.430879980E-1,6.885000039E-3,-3.574250042E-1,3.850639065E-1
2.171146276E0,-6.793200225E-2,3.484499827E-2,-3.016180098E-1,3.111307678E-1
2.176157139E0,-3.100000031E-4,5.308200046E-2,-2.559469938E-1,2.613936849E-1
2.181168139E0,3.945399821E-2,5.517200008E-2,-2.157399952E-1,2.261510847E-1
2.186178910E0,4.791599885E-2,5.573799834E-2,-1.808219999E-1,1.951903252E-1
2.191189749E0,3.775800020E-2,3.890699893E-2,-1.251700073E-1,1.364073014E-1
2.196200749E0,1.926399954E-2,1.386300009E-2,-1.249869987E-1,1.272204162E-1
2.201211597E0,-2.382300049E-2,-3.318899870E-2,-1.302070022E-1,1.364657774E-1
2.206222610E0,-5.397799984E-2,-6.846000254E-2,-1.004780009E-1,1.330271592E-1
2.211233382E0,-3.008900024E-2,-8.716899902E-2,-1.472300012E-2,9.338388007E-2
2.216244151E0,4.532000050E-3,-8.958300203E-2,9.364599735E-2,1.296735366E-1
2.221255009E0,4.986000061E-2,-6.711699814E-2,1.844750047E-1,2.025382395E-1
2.226266009E0,5.930599943E-2,-4.862200096E-2,2.557469904E-1,2.669977971E-1
2.231276765E0,5.030100048E-2,-3.188100085E-2,3.172869980E-1,3.228275515E-1
2.236287609E0,3.736900166E-2,-3.327599913E-2,3.832969964E-1,3.865492489E-1
2.241298595E0,6.941999774E-3,-3.867899999E-2,4.301620126E-1,4.319532538E-1
2.246309367E0,-3.097699955E-2,-8.152099699E-2,4.268369973E-1,4.356547597E-1
2.251320211E0,-5.734800175E-2,-1.359499991E-1,3.807289898E-1,4.083206574E-1
2.256331201E0,-8.161800355E-2,-2.022940069E-1,2.800750136E-1,3.550019394E-1
2.261342049E0,-1.086129993E-1,-2.617959976E-1,1.609639972E-1,3.259498986E-1
2.266352818E0,-1.453859955E-1,-3.053739965E-1,3.325299919E-2,3.398472118E-1
2.271363816E0,-1.734720021E-1,-3.261680007E-1,-8.151700348E-2,3.783161668E-1
2.276374664E0,-1.884659976E-1,-3.273139894E-1,-2.189480066E-1,4.365685622E-1
2.281385434E0,-1.819770038E-1,-2.974039912E-1,-3.359700143E-1,4.841906798E-1
2.286396427E0,-1.642999947E-1,-2.507970035E-1,-4.231919944E-1,5.186377246E-1
2.291407275E0,-1.364019960E-1,-2.104749978E-1,-4.550170004E-1,5.195629893E-1
2.296418060E0,-1.171950027E-1,-1.409399956E-1,-4.718729854E-1,5.062241256E-1
2.301429058E0,-8.800800145E-2,-9.620100260E-2,-4.552629888E-1,4.735656556E-1
2.306439915E0,-4.922899976E-2,-6.143999845E-2,-4.270600080E-1,4.342563970E-1
2.311450913E0,-7.931999862E-3,-6.664499640E-2,-3.973869979E-1,4.030147619E-1
2.316461675E0,3.569899872E-2,-1.010750011E-1,-3.429600000E-1,3.593217722E-1
2.321472520E0,3.969899938E-2,-1.077769995E-1,-2.800109982E-1,3.026516997E-1
2.326483520E0,1.947800070E-2,-8.986499906E-2,-2.366250008E-1,2.538631552E-1
2.331494363E0,-3.394100070E-2,-5.415200070E-2,-1.362690032E-1,1.505113681E-1
2.336505132E0,-5.459599942E-2,-1.963800006E-2,3.982000053E-3,5.815694733E-2
2.341515905E0,-2.188800089E-2,-1.460199989E-2,1.429989934E-1,1.453995017E-1
2.346526903E0,2.843800001E-2,-4.860400036E-2,2.233919948E-1,2.303802336E-1
2.351537752E0,4.781100154E-2,-1.242579967E-1,2.050130069E-1,2.444509657E-1
2.356548760E0,5.092800036E-2,-1.919700056E-1,1.433189958E-1,2.449213728E-1
2.361559531E0,1.244600024E-2,-2.378910035E-1,7.469800115E-2,2.496534074E-1
2.366570375E0,-5.784700066E-2,-2.480140030E-1,5.202300102E-2,2.599300172E-1
2.371581384E0,-1.247299984E-1,-2.087090015E-1,8.027499914E-2,2.560490096E-1
2.376592232E0,-1.794990003E-1,-1.299680024E-1,1.833789945E-1,2.876446217E-1
2.381603001E0,-1.849280000E-1,-6.219299883E-2,2.702110112E-1,3.332871507E-1
2.386613999E0,-1.441760063E-1,7.996999659E-3,3.051730096E-1,3.376110760E-1
2.391624771E0,-8.561500162E-2,3.310199827E-2,2.714169919E-1,2.865185061E-1
2.396635615E0,-2.831700072E-2,1.185800042E-2,2.186519951E-1,2.207966477E-1
2.401646620E0,-9.000000136E-5,-3.790700063E-2,1.704960018E-1,1.746591980E-1
2.406657468E0,-2.637000056E-3,-4.731199890E-2,1.393339932E-1,1.471711272E-1
2.411668232E0,-2.550599910E-2,-5.501100048E-2,6.812400371E-2,9.120112963E-2
2.416679230E0,-6.364600360E-2,-6.087800115E-2,-2.451000037E-3,8.810761715E-2
2.421690078E0,-7.503499836E-2,-3.689799830E-2,-6.034100056E-2,1.031152249E-1
2.426700839E0,-6.526099890E-2,-9.665000252E-3,-1.319230050E-1,1.474994558E-1
2.431711608E0,-5.145499855E-2,2.537400089E-2,-2.099950016E-1,2.176909678E-1
2.436722610E0,-1.305599976E-2,5.198900029E-2,-2.735050023E-1,2.787082732E-1
2.441733458E0,1.876300015E-2,6.561099738E-2,-3.441039920E-1,3.508053740E-1
2.446744471E0,7.850500196E-2,1.039920002E-1,-3.979279995E-1,4.187171650E-1
2.451755242E0,1.716209948E-1,1.909870058E-1,-3.587529957E-1,4.411728847E-1
2.456766086E0,2.811000049E-1,3.068999946E-1,-3.148730099E-1,5.218714706E-1
2.461777095E0,3.812580109E-1,4.069550037E-1,-2.568730116E-1,6.139656261E-1
2.466787867E0,4.519490004E-1,4.616500139E-1,-1.780110002E-1,6.701242799E-1
2.471798711E0,4.783940017E-1,4.630909860E-1,-7.866699994E-2,6.704495351E-1
2.476809702E0,4.485169947E-1,4.007500112E-1,1.462799963E-2,6.016494365E-1
2.481820473E0,3.899970055E-1,3.108020127E-1,7.807900012E-2,5.047691409E-1
2.486831548E0,3.178110123E-1,2.263419926E-1,1.454979926E-1,4.164183029E-1
2.491842319E0,2.117429972E-1,1.233230010E-1,1.789149940E-1,3.034044075E-1
2.496853089E0,1.238600016E-1,6.411000155E-3,1.925989985E-1,2.290780984E-1
2.501863933E0,6.052700058E-2,-7.808399945E-2,1.656090021E-1,1.928392345E-1
2.506874933E0,8.867000230E-3,-1.541610062E-1,1.599960029E-1,2.223577309E-1
2.511885781E0,-5.021499842E-2,-1.963690072E-1,1.522680074E-1,2.535111026E-1
2.516896550E0,-1.003659964E-1,-2.428870052E-1,1.470749974E-1,3.011618923E-1
2.521907548E0,-1.001259983E-1,-2.286240011E-1,1.234920025E-1,2.784679948E-1
2.526918328E0,-6.303200126E-2,-1.968339980E-1,1.195650026E-1,2.387727911E-1
2.531929173E0,1.897599921E-2,-1.222800016E-1,1.115939990E-1,1.666304533E-1
2.536940173E0,1.280789971E-1,-2.843100019E-2,1.709270030E-1,2.154729487E-1
2.541951012E0,2.778399885E-1,1.006769985E-1,2.284159958E-1,3.735033927E-1
2.546961781E0,4.444540143E-1,2.315549999E-1,2.817220092E-1,5.749124971E-1
2.551972779E0,6.046299934E-1,3.688510060E-1,3.238950074E-1,7.788045130E-1
2.556983574E0,7.546150088E-1,4.677760005E-1,3.333109915E-1,9.483429840E-1
2.561994418E0,8.741980195E-1,5.425779819E-1,2.624520063E-1,1.061835251E0
2.567005418E0,9.134669900E-1,5.185859799E-1,1.324380040E-1,1.058722431E0
2.572016267E0,8.559110165E-1,4.451250136E-1,-9.136999957E-3,9.647815455E-1
2.577027265E0,7.017070055E-1,3.525870144E-1,-7.416000217E-2,7.888029096E-1
2.582038041E0,4.741829932E-1,2.611379921E-1,-7.484800369E-2,5.464840214E-1
2.587048885E0,1.960660070E-1,1.877370030E-1,-3.027700074E-2,2.731368854E-1
2.592059651E0,-7.107999921E-2,1.292909980E-1,2.148599923E-2,1.490978759E-1
2.597070649E0,-2.837980092E-1,6.601099670E-2,5.170800164E-2,2.959264759E-1
2.602081410E0,-4.067170024E-1,-5.500000043E-5,9.117200226E-2,4.168105769E-1
2.607092255E0,-4.448379874E-1,-7.668399811E-2,9.186600149E-2,4.606523992E-1
2.612103231E0,-4.401449859E-1,-1.405400038E-1,8.496300131E-2,4.697848581E-1
2.617114079E0,-4.168759882E-1,-2.277330011E-1,2.265599929E-2,4.755640900E-1
2.622124843E0,-3.779009879E-1,-3.053260148E-1,-6.614799798E-2,4.903148882E-1
2.627135841E0,-3.474740088E-1,-3.544430137E-1,-1.430989951E-1,5.165707687E-1
2.632146684E0,-2.957519889E-1,-3.632600009E-1,-1.485510021E-1,4.914208659E-1
2.637157453E0,-2.421939969E-1,-3.276489973E-1,-1.253210008E-1,4.262829469E-1
2.642168452E0,-1.867090017E-1,-2.629980147E-1,-1.231359988E-1,3.452400342E-1
2.647179223E0,-1.224640012E-1,-1.559990048E-1,-1.152260005E-1,2.293690308E-1
2.652190067E0,-5.447100103E-2,-4.220699891E-2,-8.505500108E-2,1.094663141E-1
2.657201062E0,3.820899874E-2,4.357400164E-2,-3.088200092E-2,6.566825096E-2
2.662211833E0,1.436379999E-1,1.375450045E-1,6.390000135E-2,2.088868436E-1
2.667222687E0,2.573609948E-1,2.231000066E-1,1.418749988E-1,3.689672206E-1
2.672233687E0,3.217810094E-1,2.465309948E-1,1.836639941E-1,4.450314732E-1
2.677244546E0,3.199580014E-1,2.423350066E-1,2.442220002E-1,4.698337615E-1
2.682255315E0,2.541489899E-1,2.176930010E-1,2.545650005E-1,4.204584299E-1
2.687266390E0,1.473370045E-1,1.563960016E-1,2.194550037E-1,3.071292902E-1
2.692277150E0,3.807599843E-2,5.401900038E-2,1.387510002E-1,1.536869354E-1
2.697287919E0,-1.107549965E-1,-6.503699720E-2,4.114200175E-2,1.348671367E-1
2.702298917E0,-2.564580142E-1,-1.722420007E-1,-5.419899896E-2,3.136487707E-1
2.707309765E0,-3.782559931E-1,-2.704980075E-1,-1.806370020E-1,4.988752298E-1
2.712320763E0,-4.563750029E-1,-3.646109998E-1,-2.906099856E-1,6.524365779E-1
2.717331535E0,-5.184710026E-1,-4.471679926E-1,-3.605409861E-1,7.737966120E-1
2.722342393E0,-5.403839946E-1,-5.085350275E-1,-3.549700081E-1,8.225730621E-1
2.727353393E0,-5.265290141E-1,-5.412319899E-1,-2.433319986E-1,7.933317913E-1
2.732364164E0,-4.618709981E-1,-5.391299725E-1,-9.962400049E-2,7.168757825E-1
2.737374984E0,-3.617590070E-1,-4.961819947E-1,8.129499853E-2,6.194150690E-1
2.742385984E0,-2.151910067E-1,-3.814119995E-1,2.358639985E-1,4.974073868E-1
2.747396755E0,-2.794300020E-2,-2.224480063E-1,4.028060138E-1,4.609952402E-1
2.752407600E0,1.717000008E-1,-4.202900082E-2,5.181930065E-1,5.475137616E-1
2.757418600E0,3.537890017E-1,1.286910027E-1,5.918679833E-1,7.014525940E-1
2.762429371E0,5.056930184E-1,2.658810019E-1,5.906469822E-1,8.217554342E-1
2.767440215E0,6.266030073E-1,3.582769930E-1,5.336650014E-1,8.976592150E-1
2.772451215E0,6.642940044E-1,4.043880105E-1,4.090630114E-1,8.787199410E-1
2.777462068E0,6.352249980E-1,3.772020042E-1,2.498899996E-1,7.798956097E-1
2.782472837E0,5.528759956E-1,3.330610096E-1,1.155780032E-1,6.557131824E-1
2.787483602E0,4.255880117E-1,2.635349929E-1,9.549999959E-4,5.005764280E-1
2.792494600E0,2.729099989E-1,1.700740010E-1,-6.116199866E-2,3.273313663E-1
2.797505448E0,1.187670007E-1,7.672099769E-2,-1.235029995E-1,1.877357261E-1
2.802516470E0,1.390899997E-2,1.835899986E-2,-1.859019995E-1,1.873234277E-1
2.807527241E0,-4.810500145E-2,-3.134299815E-2,-2.223329991E-1,2.296267345E-1
2.812538085E0,-6.628599763E-2,-3.989199921E-2,-2.660349905E-1,2.770556285E-1
2.817549085E0,-5.355799943E-2,-4.593199864E-2,-3.146080077E-1,3.224227137E-1
2.822559867E0,-5.054299906E-2,-5.658699945E-2,-3.776409924E-1,3.851874899E-1
2.827570711E0,-6.195399910E-2,-6.427700073E-2,-4.026840031E-1,4.124611948E-1
2.832581472E0,-6.882800162E-2,-6.682000309E-2,-4.327340126E-1,4.432391367E-1
2.837592470E0,-6.706500053E-2,-6.370499730E-2,-4.203220010E-1,4.303796295E-1
2.842603318E0,-7.524099946E-2,-8.322300017E-2,-4.206010103E-1,4.353073462E-1
2.847614306E0,-6.516499817E-2,-1.183359995E-1,-4.551360011E-1,4.747616931E-1
2.852625154E0,-3.301300108E-2,-1.316909939E-1,-5.092660189E-1,5.270524206E-1
2.857635924E0,-4.757799953E-2,-1.438959986E-1,-4.924319983E-1,5.152271318E-1
2.862646922E0,1.754900068E-2,-1.216809973E-1,-4.074200094E-1,4.255646797E-1
2.867657761E0,1.202709973E-1,-6.016299874E-2,-2.090709955E-1,2.485867662E-1
2.872668530E0,2.412970066E-1,2.865199931E-2,7.391700149E-2,2.539860342E-1
2.877679538E0,3.439989984E-1,1.318580061E-1,3.298889995E-1,4.945185504E-1
2.882690309E0,4.346019924E-1,2.205419987E-1,5.616179705E-1,7.435942507E-1
2.887701384E0,4.725379944E-1,2.798860073E-1,7.003980279E-1,8.900481620E-1
2.892712141E0,4.715709984E-1,2.703970075E-1,8.081439734E-1,9.739560718E-1
2.897722911E0,4.287460148E-1,2.115840018E-1,8.514689803E-1,9.765195131E-1
2.902733740E0,3.781589866E-1,1.202969998E-1,8.232229948E-1,9.138772819E-1
2.907744740E0,3.086319864E-1,4.095499963E-2,7.120820284E-1,7.771691130E-1
2.912755588E0,2.506490052E-1,-2.949899994E-2,5.541650057E-1,6.089285412E-1
2.917766352E0,1.849880069E-1,-1.030519977E-1,3.709970117E-1,4.271756777E-1
2.922777350E0,1.161679998E-1,-1.722690016E-1,2.078700066E-1,2.939073880E-1
2.927788208E0,4.847899824E-2,-2.275709957E-1,5.513099954E-2,2.391196321E-1
2.932798978E0,1.612900011E-2,-2.111240029E-1,-1.008410007E-1,2.345258977E-1
2.937809976E0,-2.651000023E-2,-1.402249932E-1,-2.119359970E-1,2.555047860E-1
2.942820733E0,-4.237100109E-2,-5.353299901E-2,-3.140519857E-1,3.213872018E-1
2.947831577E0,-5.107500032E-2,1.433300041E-2,-3.552649915E-1,3.592037093E-1
2.952842567E0,-2.987599932E-2,8.913800120E-2,-4.168480039E-1,4.273177002E-1
2.957853415E0,2.219000086E-2,1.618950069E-1,-4.299489856E-1,4.599549104E-1
2.962864184E0,6.910999864E-2,2.030670047E-1,-3.906109929E-1,4.456336478E-1
2.967875183E0,1.156969965E-1,1.951619983E-1,-3.188300133E-1,3.913139123E-1
2.972886031E0,1.507920027E-1,1.675889939E-1,-2.220129967E-1,3.164080746E-1
2.977896814E0,1.845359951E-1,1.343570054E-1,-1.692810059E-1,2.841854981E-1
2.982907812E0,1.781630069E-1,8.284399658E-2,-2.126010060E-1,2.894898488E-1
2.987918569E0,1.307480037E-1,-5.927000195E-3,-3.278720081E-1,3.530300603E-1
2.992929413E0,3.627699986E-2,-9.128499776E-2,-4.550580084E-1,4.655392170E-1
2.997940185E0,-6.281799823E-2,-1.584489942E-1,-5.250989795E-1,5.520698533E-1
3.002951279E0,-1.507350057E-1,-2.023269981E-1,-5.359299779E-1,5.923497255E-1
3.007962279E0,-1.981330067E-1,-2.387720048E-1,-4.572350085E-1,5.525691012E-1
3.012973055E0,-2.364010066E-1,-2.722710073E-1,-3.466559947E-1,5.001872809E-1
3.017983901E0,-2.334109992E-1,-2.630870044E-1,-1.943790019E-1,4.018440777E-1
3.022994665E0,-2.271230072E-1,-2.683149874E-1,-2.445000038E-2,3.523855777E-1
3.028005663E0,-1.665329933E-1,-1.919150054E-1,1.782650054E-1,3.103917191E-1
3.033016439E0,-8.018399775E-2,-1.136979982E-1,3.280949891E-1,3.563748450E-1
3.038027284E0,1.907999977E-3,-8.344999701E-2,4.249970019E-1,4.331166056E-1
3.043038284E0,6.181100011E-2,-2.131799981E-2,4.651950002E-1,4.697674372E-1
3.048049122E0,9.133999795E-2,5.262000114E-2,4.374620020E-1,4.499831808E-1
3.053059891E0,9.591200203E-2,1.069649979E-1,3.324930072E-1,3.622046697E-1
3.058070889E0,9.241999686E-2,1.255879998E-1,1.954589933E-1,2.500360366E-1
3.063081737E0,6.252100319E-2,1.254509985E-1,2.400599979E-2,1.422080058E-1
3.068092501E0,1.609100029E-2,9.519799799E-2,-1.725420058E-1,1.977177859E-1
3.073103499E0,-2.360899933E-2,6.847400218E-2,-3.513090014E-1,3.586977674E-1
3.078114339E0,-7.830599695E-2,2.259300090E-2,-4.914329946E-1,4.981452208E-1
3.083125337E0,-1.457470059E-1,-1.945000025E-3,-6.071950197E-1,6.244451655E-1
3.088136108E0,-2.470889986E-1,-2.805200033E-2,-6.703370214E-1,7.149766501E-1
3.093146966E0,-3.492900133E-1,-4.122100025E-2,-6.953769922E-1,7.792636560E-1
3.098157737E0,-4.574050009E-1,-5.265099928E-2,-6.684079766E-1,8.116407369E-1
3.103168740E0,-5.044770241E-1,-5.709199980E-2,-5.781949759E-1,7.694582473E-1
3.108179588E0,-4.900009930E-1,-6.657399982E-2,-4.825139940E-1,6.909072477E-1
3.113190358E0,-4.410330057E-1,-1.065400019E-1,-3.604589999E-1,5.794752581E-1
3.118201351E0,-3.607400060E-1,-1.299449950E-1,-2.596220076E-1,4.630579235E-1
3.123212199E0,-3.101040125E-1,-1.558209956E-1,-1.534920037E-1,3.794792174E-1
3.128222968E0,-2.440800071E-1,-1.653400064E-1,-3.001400083E-2,2.963329340E-1
3.133233966E0,-1.696320027E-1,-1.819179952E-1,1.321340054E-1,2.816532775E-1
3.138244814E0,-8.869999647E-2,-1.541939974E-1,2.930609882E-1,3.428238921E-1
3.143255594E0,-7.309999783E-4,-1.093750000E-1,4.318160117E-1,4.454531321E-1
3.148266592E0,8.299300075E-2,-6.707099825E-2,5.296440125E-1,5.402861621E-1
3.153277420E0,1.769050062E-1,-3.459899873E-2,6.177520156E-1,6.435138108E-1
3.158288189E0,2.624909878E-1,-2.636699937E-2,6.532170177E-1,7.044779695E-1
3.163299187E0,3.216379881E-1,-5.018999800E-3,6.438959837E-1,7.197765095E-1
3.168310040E0,3.064070046E-1,1.008000039E-2,5.855360031E-1,6.609381740E-1
3.173321038E0,2.515810132E-1,2.109899931E-2,4.976150095E-1,5.579954047E-1
3.178331886E0,1.860810071E-1,6.765000056E-3,3.752259910E-1,4.188871576E-1
3.183342584E0,1.402519941E-1,1.373699959E-2,2.020670027E-1,2.463542177E-1
3.188353428E0,1.037520021E-1,-4.360000021E-4,3.271299973E-2,1.087879055E-1
3.193364399E0,8.999899775E-2,-3.051399998E-2,-1.356360018E-1,1.656141563E-1
3.198375170E0,6.336399913E-2,-4.327800125E-2,-3.099710047E-1,3.193274269E-1
3.203386014E0,3.101000004E-2,-6.226100028E-2,-4.737449884E-1,4.788239408E-1
3.208397014E0,4.255000036E-3,-7.058200240E-2,-6.079940200E-1,6.120920294E-1
3.213407862E0,-1.041499991E-2,-7.271999866E-2,-7.153919935E-1,7.191539299E-1
3.218418865E0,4.879999906E-3,-5.238499865E-2,-8.126839995E-1,8.143852194E-1
3.223429714E0,4.868699983E-2,-3.988499939E-2,-8.694329858E-1,8.717080669E-1
3.228440497E0,8.723700047E-2,-5.313099921E-2,-8.887079954E-1,8.945586054E-1
3.233451495E0,1.365679950E-1,-6.478399783E-2,-8.376479745E-1,8.511767812E-1
3.238462266E0,1.801220030E-1,-8.582200110E-2,-7.262910008E-1,7.531984929E-1
3.243473125E0,2.205549926E-1,-9.690599889E-2,-5.738220215E-1,6.223399310E-1
3.248483896E0,2.628670037E-1,-1.144739985E-1,-3.970890045E-1,4.897785576E-1
3.253494894E0,2.932260036E-1,-8.675099909E-2,-1.739969999E-1,3.518269191E-1
3.258505738E0,3.009330034E-1,-7.343299687E-2,4.537200183E-2,3.130681973E-1
3.263516736E0,3.035340011E-1,-4.422000051E-2,2.544080019E-1,3.985118941E-1
3.268527507E0,2.970660031E-1,-2.119000070E-2,4.272049963E-1,5.207699446E-1
3.273538340E0,3.009600043E-1,2.068999968E-2,5.477079749E-1,6.252911530E-1
3.278549340E0,2.804220021E-1,3.331499919E-2,5.898879766E-1,6.539986341E-1
3.283560140E0,2.478780001E-1,-1.480999985E-3,6.059600115E-1,6.547008720E-1
3.288570985E0,1.757140011E-1,-5.006799847E-2,5.984150171E-1,6.256858216E-1
3.293581985E0,1.022190005E-1,-9.597299993E-2,5.673779845E-1,5.844461636E-1
3.298592746E0,4.100500047E-2,-1.110040024E-1,5.680140257E-1,5.802096449E-1
3.303603590E0,-6.118000019E-3,-8.686099946E-2,5.434219837E-1,5.503541728E-1
3.308614347E0,-4.174400121E-2,-7.618600130E-2,4.815959930E-1,4.893685410E-1
3.313625345E0,-6.166100129E-2,-2.760099992E-2,3.830600083E-1,3.889715468E-1
3.318636193E0,-6.645099819E-2,1.824099943E-2,2.812010050E-1,2.895211122E-1
3.323647205E0,-6.854800135E-2,5.712899938E-2,1.995929927E-1,2.186319139E-1
3.328657977E0,-6.362000108E-2,1.082020029E-1,1.405609995E-1,1.884477980E-1
3.333668821E0,-5.187299848E-2,1.388369948E-1,9.885700047E-2,1.781550606E-1
3.338679821E0,-4.966000095E-2,1.333370060E-1,7.403100282E-2,1.603915903E-1
3.343690592E0,-4.972299933E-2,1.180569977E-1,2.300200053E-2,1.301496192E-1
3.348701422E0,-5.883000046E-2,7.700599730E-2,-2.821099944E-2,1.009294460E-1
3.353712422E0,-7.904800028E-2,3.173699975E-2,-1.058949977E-1,1.359028110E-1
3.358723207E0,-9.405300021E-2,2.057999931E-2,-1.120219976E-1,1.477106332E-1
3.363734052E0,-9.231899679E-2,2.436199971E-2,-9.690099955E-2,1.360371564E-1
3.368745043E0,-6.486900151E-2,3.310799971E-2,-1.034990028E-1,1.265550101E-1
3.373755891E0,-3.102399968E-2,3.037000075E-2,-9.609600157E-2,1.054479351E-1
3.378766889E0,-1.888100058E-2,3.294799849E-2,-8.658800274E-2,9.454916714E-2
3.383777660E0,9.271999821E-3,2.717299946E-2,-3.711400181E-2,4.692324595E-2
3.388788457E0,1.598799974E-2,2.762099914E-2,4.995400086E-2,5.927847781E-2
3.393799301E0,9.332999587E-3,1.043000026E-3,1.100270003E-1,1.104270507E-1
3.398810301E0,-1.001499966E-2,-5.483499914E-2,1.264030039E-1,1.381480972E-1
3.403821073E0,-3.932800144E-2,-1.189249977E-1,9.696800262E-2,1.584065665E-1
3.408831917E0,-6.927300245E-2,-1.749510020E-1,4.824399948E-2,1.942526331E-1
3.413842932E0,-7.932700217E-2,-2.140260041E-1,1.947000041E-3,2.282623370E-1
3.418853703E0,-9.141799808E-2,-2.157569975E-1,-5.099799857E-2,2.398106090E-1
3.423864547E0,-1.036690027E-1,-1.601199955E-1,-9.798300266E-2,2.144442675E-1
3.428875319E0,-1.047879979E-1,-8.784300089E-2,-1.031989977E-1,1.713095165E-1
3.433886297E0,-9.309499711E-2,-1.686000032E-3,-1.048749983E-1,1.402436678E-1
3.438897145E0,-6.202000007E-2,3.752600029E-2,-9.899900109E-2,1.227007878E-1
3.443908143E0,-1.442699973E-2,5.891700089E-2,-8.584599942E-2,1.051136857E-1
3.448918929E0,4.021799937E-2,3.044299968E-2,-7.328700274E-2,8.896768219E-2
3.453929773E0,5.079000071E-2,-2.505899966E-2,-3.537900001E-2,6.677762557E-2
3.458940549E0,3.724600002E-2,-6.441699713E-2,3.991699964E-2,8.444039849E-2
3.463951547E0,1.912700012E-2,-6.961099803E-2,9.578700364E-2,1.199445007E-1
3.468962381E0,-5.547000095E-3,-4.876999930E-2,1.255739927E-1,1.348262203E-1
3.473973150E0,7.805000059E-3,-2.607199922E-2,1.579740047E-1,1.603011333E-1
3.478984148E0,3.026599996E-2,-8.477999829E-3,1.976339966E-1,2.001177250E-1
3.483995220E0,3.404900059E-2,1.049999986E-2,1.660709977E-1,1.698504069E-1
3.489005991E0,3.612999991E-2,1.220900007E-2,1.324770004E-1,1.378571442E-1
3.494016765E0,4.366499931E-2,1.414000057E-3,5.857000127E-2,7.306898528E-2
3.499027609E0,3.559999913E-2,-2.514000051E-3,1.746000024E-3,3.573133989E-2
3.504038604E0,3.808600083E-2,7.249000017E-3,-7.135199755E-2,8.120467361E-2
3.509049376E0,5.545200035E-2,1.622200012E-2,-1.655209959E-1,1.753147960E-1
3.514060220E0,6.860999763E-2,3.868300095E-2,-2.472109944E-1,2.594551639E-1
3.519071235E0,9.126400203E-2,4.644899815E-2,-3.239600062E-1,3.397597874E-1
3.524082083E0,8.569499850E-2,4.293999821E-2,-3.555000126E-1,3.681952406E-1
3.529093095E0,6.884499639E-2,2.902399935E-2,-3.470099866E-1,3.549619091E-1
3.534103866E0,5.961100012E-2,7.007999811E-3,-3.463450074E-1,3.515073933E-1
3.539114625E0,6.459700316E-2,-2.557500079E-2,-3.559530079E-1,3.626698186E-1
3.544125470E0,7.836599648E-2,-5.449400097E-2,-3.567329943E-1,3.692820802E-1
3.549136470E0,7.019200176E-2,-9.350100160E-2,-3.154180050E-1,3.363894652E-1
3.554147237E0,4.759600013E-2,-1.210149974E-1,-2.391510010E-1,2.722190480E-1
3.559158081E0,2.244300023E-2,-1.119339988E-1,-1.512780041E-1,1.895202967E-1
3.564169076E0,-7.681000046E-3,-1.047959998E-1,-6.843300164E-2,1.253964715E-1
3.569179847E0,-3.806199878E-2,-8.558300138E-2,4.543200135E-2,1.041020299E-1
3.574190691E0,-4.754899815E-2,-8.077400178E-2,1.448680013E-1,1.725458907E-1
3.579201677E0,-1.791200042E-2,-6.234399974E-2,2.300619930E-1,2.390316604E-1
3.584212448E0,-1.038999995E-3,-6.858199835E-2,2.676309943E-1,2.762805081E-1
3.589223278E0,1.996799931E-2,-5.461199954E-2,2.985610068E-1,3.041707847E-1
3.594234278E0,7.095400244E-2,-7.280100137E-2,2.771759927E-1,2.952303968E-1
3.599245049E0,7.928200066E-2,-7.096199691E-2,2.374390066E-1,2.601893973E-1
3.604255893E0,5.555399880E-2,-5.209799856E-2,1.630489975E-1,1.799595061E-1
3.609266878E0,2.397499979E-2,-5.146700144E-2,7.528100163E-2,9.429147394E-2
3.614277650E0,-1.317100041E-2,-4.021099955E-2,-4.414000083E-3,4.254272127E-2
3.619288499E0,-1.416299958E-2,-1.580999978E-2,-5.237700045E-2,5.651457180E-2
3.624299270E0,-2.196200006E-2,3.814100102E-2,-8.996000141E-2,1.001492250E-1
3.629310254E0,-3.391300142E-2,6.559299678E-2,-9.385000169E-2,1.194167313E-1
3.634321102E0,-3.808299825E-2,9.260900319E-2,-1.285360008E-1,1.629363242E-1
3.639331871E0,-1.601600088E-2,9.330700338E-2,-1.728020012E-1,1.970361408E-1
3.644342869E0,-3.508999944E-3,8.709999919E-2,-2.339430004E-1,2.496558639E-1
3.649353718E0,1.093699969E-2,6.748100370E-2,-2.644990087E-1,2.731904636E-1
3.654364716E0,3.606999991E-3,5.895899981E-2,-2.336139977E-1,2.409661263E-1
3.659375487E0,-2.713599987E-2,2.668800019E-2,-1.656080037E-1,1.699253446E-1
3.664386345E0,-5.064399913E-2,3.675499931E-2,-6.250400096E-2,8.844486847E-2
3.669397345E0,-7.424499840E-2,4.402299970E-2,8.508499712E-2,1.212014894E-1
3.674408111E0,-8.854500204E-2,4.798699915E-2,2.223439962E-1,2.440897829E-1
3.679418955E0,-9.353599697E-2,3.402800113E-2,3.470090032E-1,3.610015732E-1
3.684429955E0,-8.022499830E-2,3.936100006E-2,4.547199905E-1,4.634173156E-1
3.689440814E0,-6.281799823E-2,2.762899920E-2,5.026530027E-1,5.073159801E-1
3.694451583E0,-3.690300137E-2,4.995200038E-2,5.178030133E-1,5.215141364E-1
3.699462581E0,-9.637000039E-3,8.876699954E-2,4.933879972E-1,5.014022015E-1
3.704473429E0,-1.943000010E-3,1.295689940E-1,4.391430020E-1,4.578629442E-1
3.709484188E0,1.003799960E-2,1.562210023E-1,3.978410065E-1,4.275315538E-1
3.714495186E0,1.485699974E-2,1.952790022E-1,3.574880064E-1,4.076178281E-1
3.719505958E0,4.538999870E-2,2.254779935E-1,3.082880080E-1,3.846323873E-1
3.724516797E0,8.014599979E-2,2.432750016E-1,3.022919893E-1,3.962152881E-1
3.729527797E0,1.194100007E-1,2.164169997E-1,2.910839915E-1,3.818703395E-1
3.734538645E0,1.659149975E-1,1.859250069E-1,2.793309987E-1,3.743283336E-1
3.739549400E0,1.754589975E-1,1.308030039E-1,2.478269935E-1,3.306259281E-1
3.744560398E0,1.420920044E-1,7.695700228E-2,1.826040000E-1,2.438375253E-1
3.749571246E0,4.344699904E-2,1.275600027E-2,1.100720018E-1,1.190218587E-1
3.754582035E0,-6.787200272E-2,-5.678299814E-2,5.164799839E-2,1.024618630E-1
3.759593033E0,-1.872639954E-1,-9.197100252E-2,-1.769999973E-3,2.086374899E-1
3.764603890E0,-2.776130140E-1,-7.578600198E-2,-1.139279976E-1,3.095029762E-1
3.769614659E0,-3.078910112E-1,-3.029100038E-2,-1.916379929E-1,3.639224365E-1
3.774625648E0,-3.155539930E-1,1.903899945E-2,-1.733530015E-1,3.605385820E-1
3.779636496E0,-2.848500013E-1,5.079599842E-2,-1.526360065E-1,3.271353041E-1
3.784647265E0,-2.145349979E-1,1.046900004E-1,-1.531389952E-1,2.836138455E-1
3.789658258E0,-1.289809942E-1,1.404619962E-1,-1.488270015E-1,2.418990401E-1
3.794669030E0,-4.476499930E-2,1.446270049E-1,-1.472859979E-1,2.112203609E-1
3.799679874E0,1.047000056E-3,1.350689977E-1,-1.057960019E-1,1.715736704E-1
3.804690874E0,5.172400177E-2,1.258849949E-1,-9.359300137E-2,1.651728010E-1
3.809701645E0,1.119590029E-1,1.381080002E-1,-1.008640006E-1,2.044069095E-1
3.814712489E0,1.377100050E-1,1.486809999E-1,-6.080200151E-2,2.115820611E-1
3.819723494E0,1.376489997E-1,8.054900169E-2,-3.153999895E-2,1.625735536E-1
3.824734342E0,1.131739989E-1,2.410100028E-2,-2.933100052E-2,1.193713526E-1
3.829745330E0,6.326700002E-2,-3.536299989E-2,-7.292100042E-2,1.028140426E-1
3.834756102E0,7.348999847E-3,-1.097489968E-1,-1.455489993E-1,1.824372804E-1
3.839766946E0,-6.394299865E-2,-1.758340001E-1,-2.683590055E-1,3.271434830E-1
3.844777717E0,-1.436090022E-1,-2.199289948E-1,-4.051469862E-1,4.828419915E-1
3.849788715E0,-1.650500000E-1,-1.991620064E-1,-4.198780060E-1,4.931577305E-1
3.854799486E0,-1.016789973E-1,-2.135729939E-1,-4.686779976E-1,5.249867690E-1
3.859810330E0,-7.275999989E-3,-2.222799957E-1,-4.776639938E-1,5.269005861E-1
3.864821330E0,4.972700030E-2,-2.112230062E-1,-4.728499949E-1,5.202644045E-1
3.869832179E0,6.798700243E-2,-2.063989937E-1,-4.590030015E-1,5.078449886E-1
3.874842948E0,8.086699992E-2,-1.956119984E-1,-4.027569890E-1,4.549908986E-1
3.879853965E0,1.047450006E-1,-2.115660012E-1,-3.261010051E-1,4.025835982E-1
3.884864813E0,1.256690025E-1,-1.974350065E-1,-2.310550064E-1,3.288764144E-1
3.889875811E0,1.579899937E-1,-1.990029961E-1,-1.701000035E-1,3.057728597E-1
3.894886578E0,1.875330061E-1,-2.093449980E-1,-1.263249964E-1,3.081427612E-1
3.899897348E0,2.094060034E-1,-2.194429934E-1,-1.066560000E-1,3.215300980E-1
3.904908192E0,2.328410000E-1,-1.969719976E-1,-1.057970002E-1,3.228093932E-1
3.909919172E0,2.458599955E-1,-1.382700056E-1,-1.136410013E-1,3.041052597E-1
3.914929943E0,2.347899973E-1,-1.003440022E-1,-1.326780021E-1,2.877476566E-1
3.919940797E0,2.025700063E-1,-6.375599653E-2,-1.294610053E-1,2.487158749E-1
3.924951797E0,1.730919927E-1,-7.714500278E-2,-9.519799799E-2,2.120727428E-1
3.929962650E0,1.209110022E-1,-1.090549976E-1,-7.058499753E-2,1.774674754E-1
3.934973420E0,7.225500047E-2,-1.688220054E-1,-7.010400295E-2,1.965609977E-1
3.939984442E0,8.496599644E-2,-2.488099933E-1,-7.037799805E-2,2.721740177E-1
3.944995213E0,-3.849000111E-2,-2.658770084E-1,3.660999937E-3,2.686735319E-1
3.950006028E0,-2.298330069E-1,-2.186779976E-1,1.623000056E-1,3.563489434E-1
3.955017028E0,-3.685989976E-1,-1.650879979E-1,3.336969912E-1,5.239016606E-1
3.960027784E0,-4.111210108E-1,-1.227419972E-1,4.270240068E-1,6.053392320E-1
3.965038628E0,-3.500280082E-1,-9.008800238E-2,4.279319942E-1,5.601439515E-1
3.970049628E0,-2.341839969E-1,-4.888699949E-2,3.414370120E-1,4.169068436E-1
3.975060487E0,-8.174300194E-2,-1.349600032E-2,2.366800010E-1,2.507618059E-1
3.980071256E0,6.892599910E-2,1.489899959E-2,1.920460016E-1,2.045835777E-1
3.985082259E0,1.810960025E-1,4.605099931E-2,1.335490048E-1,2.296775856E-1
3.990093107E0,2.678210139E-1,8.242899925E-2,6.134999916E-2,2.868561622E-1
3.995103885E0,3.159379959E-1,1.384419948E-1,-5.212999880E-3,3.449785190E-1
4.000114655E0,3.196809888E-1,1.814119965E-1,-4.713999853E-2,3.705785025E-1
4.005125658E0,2.894000113E-1,2.308370024E-1,-6.445500255E-2,3.757559521E-1
4.010136506E0,2.586889863E-1,2.565149963E-1,-6.954000145E-2,3.708850856E-1
4.015147304E0,2.134329975E-1,3.127529919E-1,-6.439799815E-2,3.840770502E-1
4.020158302E0,1.866009980E-1,3.543249965E-1,-7.555499673E-2,4.075226290E-1
4.025169389E0,1.706870049E-1,3.739610016E-1,-1.221619993E-1,4.288408078E-1
4.030180160E0,1.718540043E-1,3.375020027E-1,-1.477970034E-1,4.065530160E-1
4.035191006E0,1.590719968E-1,2.652480006E-1,-1.362559944E-1,3.379735167E-1
4.040201771E0,1.162789986E-1,1.820520014E-1,-6.872799993E-2,2.266876147E-1
4.045212769E0,1.386700012E-2,8.622399718E-2,4.992099851E-2,1.005931284E-1
4.050223540E0,-7.691500336E-2,2.239199914E-2,2.056480050E-1,2.206998444E-1
4.055234370E0,-1.497250050E-1,-1.291100029E-2,3.796870112E-1,4.083460512E-1
4.060245370E0,-1.885990053E-1,-2.121100016E-2,5.247799754E-1,5.580443656E-1
4.065256141E0,-2.105759978E-1,-2.252100036E-2,6.317200065E-1,6.662729267E-1
4.070266980E0,-1.927630007E-1,-1.251399983E-2,7.555789948E-1,7.798806267E-1
4.075277980E0,-1.567520052E-1,-1.048200019E-2,8.653039932E-1,8.794498645E-1
4.080288824E0,-1.095039994E-1,-2.353199944E-2,9.513270259E-1,9.578976934E-1
4.085299822E0,-8.573299646E-2,-4.476600140E-2,9.948490262E-1,9.995392571E-1
4.090310593E0,-6.794399768E-2,-9.106999636E-2,9.721490145E-1,9.787664877E-1
4.095321377E0,-4.198899865E-2,-1.059829965E-1,9.243329763E-1,9.313360955E-1
4.100332221E0,-3.120799921E-2,-1.048149988E-1,8.017209768E-1,8.091456284E-1
4.105343211E0,-2.325199917E-2,-1.046570018E-1,6.213150024E-1,6.304966897E-1
4.110353982E0,-6.428999826E-3,-6.823699921E-2,4.003210068E-1,4.061459449E-1
4.115364822E0,5.020000041E-3,-1.284500025E-2,1.366679966E-1,1.373620608E-1
4.120375822E0,1.805599965E-2,3.307599947E-2,-1.458420008E-1,1.506317698E-1
4.125386656E0,-5.118900165E-2,-4.812699929E-2,-3.890190125E-1,3.953129317E-1
4.130397425E0,-8.758799732E-2,3.253600001E-2,-5.535200238E-1,5.613507507E-1
4.135408423E0,-1.122900005E-2,7.701800019E-2,-7.265110016E-1,7.306682546E-1
4.140419271E0,1.456409991E-1,3.969300166E-2,-7.244009972E-1,7.399619177E-1
4.145430040E0,2.815009952E-1,-4.378100112E-2,-6.605200171E-1,7.193373891E-1
4.150440824E0,2.799670100E-1,-8.567900211E-2,-7.713810205E-1,8.250764189E-1
4.155451822E0,2.854140103E-1,6.416799873E-2,-7.662640214E-1,8.202068275E-1
4.160462670E0,3.212279975E-1,1.082189977E-1,-8.375080228E-1,9.035034400E-1
4.165473439E0,3.227699995E-1,7.934299856E-2,-7.671290040E-1,8.360398871E-1
4.170484437E0,2.770960033E-1,2.293300070E-2,-5.704150200E-1,6.345718341E-1
4.175495285E0,1.932229996E-1,-3.328400105E-2,-4.211539924E-1,4.645574643E-1
4.180506255E0,9.141799808E-2,-1.369930059E-1,-3.335460126E-1,3.719909630E-1
4.185517027E0,-4.860999994E-3,-2.359890044E-1,-2.548080087E-1,3.473349404E-1
4.190527846E0,-1.192950010E-1,-3.327670097E-1,-1.776240021E-1,3.956203561E-1
4.195538846E0,-2.698870003E-1,-4.507530034E-1,-1.091270000E-1,5.365873322E-1
4.200549694E0,-4.345949888E-1,-5.548059940E-1,-7.026900351E-2,7.082515289E-1
4.205560463E0,-5.856999755E-1,-6.079509854E-1,-5.493000150E-3,8.442031953E-1
4.210571461E0,-6.963030100E-1,-6.561160088E-1,8.027499914E-2,9.600886283E-1
4.215582305E0,-7.075309753E-1,-6.674320102E-1,1.631370038E-1,9.862450260E-1
4.220593075E0,-6.266869903E-1,-6.298679709E-1,2.149000019E-1,9.141401727E-1
4.225604078E0,-4.774070084E-1,-5.362349749E-1,2.265889943E-1,7.528665036E-1
4.230614849E0,-3.081209958E-1,-4.118709862E-1,2.130309939E-1,5.567391325E-1
4.235625702E0,-1.519439965E-1,-2.460580021E-1,1.868499964E-1,3.443028313E-1
4.240636473E0,-8.507000282E-3,-5.124400184E-2,1.770499945E-1,1.845129191E-1
4.245647485E0,1.328140050E-1,1.199650019E-1,9.773299843E-2,2.039188579E-1
4.250658333E0,2.027820051E-1,2.426930070E-1,8.694999851E-3,3.163795825E-1
4.255669108E0,2.292480022E-1,3.231100142E-1,-7.835900038E-2,4.038500473E-1
4.260680106E0,2.112440020E-1,3.788329959E-1,-1.825969964E-1,4.706167552E-1
4.265690959E0,1.548500061E-1,3.990539908E-1,-2.970440090E-1,5.210160797E-1
4.270701728E0,8.889900148E-2,3.893469870E-1,-4.220429957E-1,5.810459525E-1
4.275712726E0,2.494800091E-2,3.583559990E-1,-4.986349940E-1,6.145553531E-1
4.280723579E0,-4.189800099E-2,3.117739856E-1,-5.632089972E-1,6.451068401E-1
4.285734577E0,-9.799599648E-2,2.662430108E-1,-6.350560188E-1,6.955463343E-1
4.290745425E0,-1.282339990E-1,2.348940074E-1,-5.980280042E-1,6.551768059E-1
4.295756200E0,-1.152350008E-1,2.088509947E-1,-4.937239885E-1,5.483258340E-1
4.300767198E0,-1.061849967E-1,1.783699989E-1,-4.032500088E-1,4.535434705E-1
4.305777988E0,-7.261899859E-2,1.426070035E-1,-3.645370007E-1,3.981174465E-1
4.310788832E0,-2.914199978E-2,1.179310009E-1,-3.415760100E-1,3.625343401E-1
4.315799837E0,1.424800046E-2,9.312599897E-2,-2.487789989E-1,2.660196374E-1
4.320810608E0,2.555200085E-2,5.616199970E-2,-1.790010035E-1,1.893368274E-1
4.325821683E0,3.771000076E-3,1.863799989E-2,-1.316290051E-1,1.329954528E-1
4.330832479E0,-1.292499993E-2,-1.074500009E-2,-1.134029999E-1,1.146418381E-1
4.335843248E0,4.945999943E-3,3.389999911E-4,-8.588100225E-2,8.602397563E-2
4.340854092E0,6.767199934E-2,4.380999878E-2,-4.668600112E-2,9.315792069E-2
4.345865092E0,1.456380039E-1,1.007589996E-1,4.445699975E-2,1.825903311E-1
4.350875877E0,2.321469933E-1,1.701049954E-1,9.257899970E-2,3.023223563E-1
4.355886721E0,3.183400035E-1,2.024060041E-1,1.285659969E-1,3.985445569E-1
4.360897735E0,3.864090145E-1,2.004780024E-1,1.214860007E-1,4.519537634E-1
4.365908507E0,4.071350098E-1,1.857690066E-1,5.999900028E-2,4.515184603E-1
4.370919366E0,3.867920041E-1,1.517339945E-1,-2.229800075E-2,4.160870827E-1
4.375930366E0,3.359040022E-1,1.033480018E-1,-1.252329946E-1,3.730892803E-1
4.380941127E0,2.623220086E-1,4.822200164E-2,-2.368800044E-1,3.567216480E-1
4.385951971E0,1.708640009E-1,1.459100004E-2,-3.545680046E-1,3.938602214E-1
4.390962961E0,9.202200174E-2,4.170000087E-3,-4.756959975E-1,4.845328882E-1
4.395973809E0,1.785299927E-2,-1.830800064E-2,-5.936549902E-1,5.942054862E-1
4.400984574E0,-3.370099887E-2,-3.370900080E-2,-6.872680187E-1,6.889189964E-1
4.405995572E0,-6.169600040E-2,-6.945800036E-2,-7.194179893E-1,7.253916553E-1
4.411006343E0,-9.548799694E-2,-9.575299919E-2,-6.741849780E-1,6.876132481E-1
4.416017183E0,-1.212320030E-1,-1.100969985E-1,-5.900880098E-1,6.123907306E-1
4.421027954E0,-1.554930061E-1,-1.216150001E-1,-4.697290063E-1,5.095229362E-1
4.426038952E0,-1.908320040E-1,-1.397639960E-1,-3.418169916E-1,4.156797855E-1
4.431049714E0,-1.572889984E-1,-1.485390067E-1,-2.256370038E-1,3.125951423E-1
4.436060558E0,-9.638000280E-2,-1.339959949E-1,-8.771199733E-2,1.869155587E-1
4.441071558E0,-5.717800185E-2,-1.270470023E-1,5.547000095E-2,1.499572796E-1
4.446082392E0,-4.298299924E-2,-1.023129970E-1,1.522729993E-1,1.884212140E-1
4.451093161E0,-3.162899986E-2,-9.114500135E-2,2.126100063E-1,2.334755227E-1
4.456104159E0,-6.606999785E-3,-9.542600065E-2,2.959440053E-1,3.110186944E-1
4.461114934E0,2.980599925E-2,-1.199970022E-1,3.449229896E-1,3.664144469E-1
4.466125779E0,4.981099814E-2,-1.343979985E-1,3.673749864E-1,3.943454554E-1
4.471136755E0,6.077599898E-2,-1.387979984E-1,3.897809982E-1,4.181959266E-1
4.476147603E0,4.931600019E-2,-1.622190028E-1,3.599599898E-1,3.978922807E-1
4.481158363E0,-5.026999861E-3,-1.691170037E-1,3.310790062E-1,3.718052447E-1
4.486169438E0,-6.166400015E-2,-1.602360010E-1,2.771939933E-1,3.260590972E-1
4.491180209E0,-1.184210032E-1,-1.477999985E-1,2.127330005E-1,2.848222307E-1
4.496190968E0,-1.660349965E-1,-1.508010030E-1,1.351229995E-1,2.618526066E-1
4.501201966E0,-1.981730014E-1,-1.382910013E-1,8.247999847E-2,2.553426907E-1
4.506212815E0,-1.874459982E-1,-1.411570013E-1,3.752699867E-2,2.376332823E-1
4.511223584E0,-1.652379930E-1,-1.476850063E-1,-3.079699911E-2,2.237474258E-1
4.516234577E0,-1.182060018E-1,-1.345430017E-1,-9.137000144E-2,2.010546078E-1
4.521245425E0,-7.746700197E-2,-1.138119996E-1,-1.561000049E-1,2.081382213E-1
4.526256194E0,-4.768899828E-2,-7.854700089E-2,-2.152519971E-1,2.340454959E-1
4.531267187E0,-2.157600038E-2,-4.272099957E-2,-2.618229985E-1,2.661613987E-1
4.536278035E0,2.210599929E-2,-2.012499981E-2,-2.914290130E-1,2.929582913E-1
4.541288786E0,7.586099952E-2,-1.252899971E-2,-3.140799999E-1,3.233544703E-1
4.546299784E0,1.605640054E-1,2.218800038E-2,-3.605569899E-1,3.953156336E-1
4.551310632E0,2.423779964E-1,5.866900086E-2,-3.429479897E-1,4.240312117E-1
4.556321401E0,2.980090082E-1,7.452999800E-2,-2.666920125E-1,4.068030471E-1
4.561332399E0,3.427549899E-1,5.614300072E-2,-2.036840022E-1,4.026415184E-1
4.566343247E0,3.468180001E-1,5.349899828E-2,-1.414240003E-1,3.783458944E-1
4.571354011E0,3.138650060E-1,5.931900069E-2,-7.708200067E-2,3.285903539E-1
4.576365009E0,2.402900010E-1,5.993999913E-2,2.280000038E-2,2.487004787E-1
4.581375858E0,1.852899939E-1,6.451000273E-2,1.247690022E-1,2.325107012E-1
4.586386842E0,1.181949973E-1,4.691899940E-2,2.216500044E-1,2.555389879E-1
4.591397386E0,8.808899671E-2,4.898700118E-2,2.826830149E-1,3.001151188E-1
4.596408384E0,1.031460017E-1,4.650999978E-2,3.387140036E-1,3.571126628E-1
4.601419232E0,1.296949983E-1,3.214100003E-2,3.634659946E-1,3.872484547E-1
4.606430245E0,1.375479996E-1,-2.439800091E-2,3.591459990E-1,3.853577081E-1
4.611441017E0,1.108309999E-1,-7.979500294E-2,3.665600121E-1,3.911738686E-1
4.616451861E0,7.384999841E-2,-1.155119985E-1,3.574360013E-1,3.828280803E-1
4.621462861E0,4.313899949E-2,-1.272860020E-1,3.535319865E-1,3.782162940E-1
4.626473632E0,-4.377999809E-3,-1.325509995E-1,2.980360091E-1,3.262121964E-1
4.631484476E0,-6.603500247E-2,-1.522749960E-1,2.553339899E-1,3.045385728E-1
4.636495261E0,-6.010400131E-2,-1.582989991E-1,2.203470021E-1,2.778918233E-1
4.641506259E0,-6.343799829E-2,-1.366119981E-1,2.099310011E-1,2.583761654E-1
4.646517108E0,-4.803900048E-2,-9.706900269E-2,2.336010039E-1,2.574870208E-1
4.651527863E0,-4.426499829E-2,-6.672199816E-2,1.794999987E-1,1.965488861E-1
4.656538861E0,-4.226600006E-2,-3.416400030E-2,7.912199944E-2,9.598898100E-2
4.661549709E0,-4.719899967E-2,-1.765199937E-2,1.802599989E-2,5.351892491E-2
4.666560721E0,-4.247200117E-2,-1.463999972E-2,-6.373800337E-2,7.797905840E-2
4.671571492E0,-3.093400039E-2,1.984100044E-2,-1.325349957E-1,1.375358235E-1
4.676582336E0,-6.056999788E-3,5.967900157E-2,-1.814869940E-1,1.911434003E-1
4.681593113E0,4.829100147E-2,8.359699696E-2,-2.468110025E-1,2.650210363E-1
4.686604111E0,1.310980022E-1,1.157969981E-1,-2.811029851E-1,3.310808349E-1
4.691615193E0,1.832949966E-1,1.267250031E-1,-2.610540092E-1,3.432280261E-1
4.696625964E0,2.127979994E-1,1.525429934E-1,-2.033440024E-1,3.315134035E-1
4.701636733E0,2.461239994E-1,1.652279943E-1,-1.226560026E-1,3.208142892E-1
4.706647591E0,2.461069971E-1,1.628270000E-1,-3.565400094E-2,2.972414738E-1
4.711658591E0,2.257010043E-1,1.569959968E-1,2.223400027E-2,2.758315376E-1
4.716669363E0,2.087569982E-1,1.219080016E-1,7.942300290E-2,2.544583631E-1
4.721680212E0,2.022040039E-1,5.106399953E-2,1.378459930E-1,2.499910179E-1
4.726691212E0,1.966120005E-1,-1.579000033E-3,1.622550040E-1,2.549224555E-1
4.731701978E0,1.618430018E-1,-3.722300008E-2,1.177119985E-1,2.035554558E-1
4.736712822E0,8.898200095E-2,-3.992199898E-2,6.469099969E-2,1.170319953E-1
4.741723822E0,-7.313000038E-3,-2.667799965E-2,1.539400034E-2,3.165708264E-2
4.746734607E0,-9.847400337E-2,-3.523899987E-2,-3.768900037E-2,1.111727359E-1
4.751745452E0,-1.269309968E-1,-4.621100053E-2,-5.230699852E-2,1.448549502E-1
4.756756452E0,-1.572560072E-1,-6.422200054E-2,-7.160700113E-2,1.843406623E-1
4.761767223E0,-1.966280043E-1,-6.279200315E-2,-4.781600088E-2,2.118767984E-1
4.766778067E0,-2.195820063E-1,-4.664200172E-2,1.158799976E-2,2.247799270E-1
4.771788824E0,-2.196110040E-1,-4.653999954E-2,7.508999854E-2,2.367139044E-1
4.776799822E0,-1.950400025E-1,-3.883399814E-2,1.521909982E-1,2.504212090E-1
4.781810684E0,-1.646659970E-1,-3.077900037E-2,2.191009969E-1,2.758033435E-1
4.786821454E0,-1.394889951E-1,-3.938800097E-2,2.355930060E-1,2.766092169E-1
4.791832476E0,-1.304010004E-1,-5.533099920E-2,1.877820045E-1,2.352190927E-1
4.796843324E0,-1.437190026E-1,-7.848899812E-2,1.309179962E-1,2.096549457E-1
4.801854322E0,-1.860859990E-1,-1.245250031E-1,1.028589979E-1,2.464030212E-1
4.806865089E0,-2.477100044E-1,-1.528829932E-1,9.657599777E-2,3.066926463E-1
4.811875933E0,-2.791480124E-1,-1.742540002E-1,3.587299958E-2,3.310210590E-1
4.816886704E0,-2.701120079E-1,-1.677069962E-1,-1.245300006E-2,3.181842400E-1
4.821897682E0,-2.179210037E-1,-1.428139955E-1,1.072499994E-2,2.607689145E-1
4.826908531E0,-1.212690026E-1,-1.165679991E-1,3.577899933E-2,1.719721088E-1
4.831919286E0,-8.973999880E-3,-8.705899864E-2,3.421400115E-2,9.397020695E-2
4.836930284E0,7.484699786E-2,-5.941199884E-2,-1.487599965E-2,9.671170591E-2
4.841941132E0,1.335760057E-1,-3.379600123E-2,-8.713699877E-2,1.630263033E-1
4.846952125E0,1.513510048E-1,4.521000199E-3,-1.274430007E-1,1.979123153E-1
4.851962896E0,1.062680036E-1,3.162899986E-2,-2.164790034E-1,2.432209718E-1
4.856973740E0,3.915499896E-2,6.455200166E-2,-2.849430144E-1,2.947755015E-1
4.861984740E0,-2.167299949E-2,5.929800123E-2,-3.122549951E-1,3.185736239E-1
4.866995512E0,-5.799299851E-2,1.056899969E-2,-2.878319919E-1,2.938063090E-1
4.872006356E0,-3.775800020E-2,-2.238699980E-2,-2.549160123E-1,2.586677747E-1
4.877017127E0,-7.003999781E-3,-2.570500039E-2,-1.942899972E-1,1.961081489E-1
4.882028120E0,1.060300041E-2,-1.833100058E-2,-1.083730012E-1,1.104226272E-1
4.887038968E0,2.268799953E-2,-9.699000046E-3,2.899999963E-3,2.484403197E-2
4.892049966E0,4.176500067E-2,-3.202999942E-3,4.696400091E-2,6.293005539E-2
4.897060738E0,1.450799964E-2,-8.519999683E-3,4.361600056E-2,4.674856098E-2
4.902071582E0,-2.281099930E-2,-3.249400109E-2,2.150899917E-2,4.515350309E-2
4.907082339E0,-6.293500215E-2,-4.478399828E-2,-4.520099983E-2,8.949609702E-2
4.912093337E0,-9.426899999E-2,-4.131900147E-2,-1.370799989E-1,1.714200406E-1
4.917104108E0,-1.198000014E-1,-2.450500056E-2,-2.160319984E-1,2.482385138E-1
4.922114952E0,-1.354530007E-1,-9.889999637E-4,-2.538900077E-1,2.877648859E-1
4.927125952E0,-9.737499803E-2,5.681000184E-3,-2.753759921E-1,2.921405501E-1
4.932136786E0,-4.695900157E-2,8.303999901E-3,-2.405540049E-1,2.452352616E-1
4.937147555E0,-5.475999787E-3,-2.316699922E-2,-1.858509928E-1,1.873693890E-1
4.942158553E0,1.123000029E-2,-4.828500003E-2,-1.323529929E-1,1.413324763E-1
4.947169406E0,-1.065999968E-3,-6.668099761E-2,-4.418500140E-2,7.999878841E-2
4.952180175E0,-3.889799863E-2,-1.024990007E-1,9.766999632E-3,1.100658609E-1
4.957191173E0,-5.500299856E-2,-1.161049977E-1,4.426199943E-2,1.358853374E-1
4.962201944E0,-9.186100215E-2,-1.248589978E-1,4.311899841E-2,1.608958081E-1
4.967212818E0,-1.051969975E-1,-1.122360006E-1,8.261000365E-2,1.746073905E-1
4.972223589E0,-6.568600237E-2,-7.186400145E-2,1.362289935E-1,1.674437944E-1
4.977234664E0,-1.874700002E-2,-2.343099937E-2,1.779839993E-1,1.804958884E-1
4.982245435E0,3.354199976E-2,2.352399938E-2,2.103610039E-1,2.143133133E-1
4.987256204E0,6.811500341E-2,5.246099830E-2,2.191949934E-1,2.354532972E-1
4.992267192E0,6.469599903E-2,8.278299868E-2,2.239370048E-1,2.473588068E-1
4.997278041E0,4.597600177E-2,5.792300031E-2,1.742600054E-1,1.893024463E-1
5.002289039E0,7.714999840E-3,2.372200042E-2,1.275749952E-1,1.299908994E-1
5.007299799E0,-1.235499978E-2,-2.431900054E-2,7.155500352E-2,7.657792330E-2
5.012310643E0,-6.379699707E-2,-5.542099848E-2,1.857000054E-3,8.452805663E-2
5.017321405E0,-9.469900280E-2,-6.551499665E-2,-8.135700226E-2,1.409931833E-1
5.022332403E0,-1.038959995E-1,-3.825199977E-2,-1.280550063E-1,1.692798831E-1
5.027343251E0,-6.876000017E-2,-3.589999978E-4,-1.815509945E-1,1.941361123E-1
5.032354045E0,-2.329500020E-2,3.436100110E-2,-1.968989968E-1,2.012276084E-1
5.037365043E0,5.529399961E-2,7.549799979E-2,-1.841060072E-1,2.065245658E-1
5.042375814E0,1.196239963E-1,8.813899755E-2,-1.579360068E-1,2.168459491E-1
5.047386643E0,1.772480011E-1,8.469100296E-2,-1.233009994E-1,2.319322236E-1
5.052397643E0,2.053329945E-1,7.031200081E-2,-9.436699748E-2,2.366654734E-1
5.057408501E0,2.070180029E-1,4.763200134E-2,-6.142900139E-2,2.211306927E-1
5.062419270E0,1.948760003E-1,3.285200149E-2,-6.221799925E-2,2.071882934E-1
5.067430258E0,1.738619953E-1,1.392699964E-2,-7.748000324E-2,1.908536236E-1
5.072441107E0,1.369329989E-1,-1.327400003E-2,-5.969600007E-2,1.499681889E-1
5.077451876E0,1.007400006E-1,-2.743900008E-2,-2.552100085E-2,1.074838031E-1
5.082462874E0,7.207699865E-2,-4.273099825E-2,3.674900159E-2,9.149601666E-2
5.087473722E0,3.437700123E-2,-4.510400072E-2,1.010489985E-1,1.158751449E-1
5.092484487E0,1.819700003E-2,-3.315500170E-2,1.486150026E-1,1.533518958E-1
5.097495485E0,8.803999983E-3,-4.800000228E-3,2.082040012E-1,2.084453322E-1
5.102506333E0,4.538699985E-2,4.869399965E-2,2.869249880E-1,2.945454704E-1
5.107517098E0,9.894700348E-2,7.278200239E-2,3.676309884E-1,3.876084016E-1
5.112528096E0,1.420270056E-1,6.952899694E-2,3.696329892E-1,4.020379315E-1
5.117538939E0,1.849830002E-1,6.212399900E-2,2.864879966E-1,3.466316111E-1
5.122549937E0,1.932290047E-1,6.430999935E-2,1.453779936E-1,2.502158774E-1
5.127560708E0,1.792159975E-1,7.167399675E-2,3.703000024E-3,1.930524482E-1
5.132571566E0,1.364929974E-1,7.515899837E-2,-1.313859969E-1,2.038173044E-1
5.137582338E0,1.101659983E-1,7.247799635E-2,-2.840040028E-1,3.131259822E-1
5.142593107E0,8.795899898E-2,5.970900133E-2,-4.093100131E-1,4.228908099E-1
5.147604168E0,9.505899996E-2,5.143899843E-2,-5.198320150E-1,5.309496284E-1
5.152614939E0,9.544999897E-2,6.159999873E-3,-5.974149704E-1,6.050233836E-1
5.157625937E0,7.454899698E-2,-3.186599910E-2,-5.854399800E-1,5.910270426E-1
5.162636708E0,2.273900062E-2,-3.120600060E-2,-5.032780170E-1,5.047570099E-1
5.167647552E0,-5.507300049E-2,-2.457799949E-2,-3.370060027E-1,3.423596928E-1
5.172658533E0,-1.698610038E-1,-9.905000217E-3,-1.578370035E-1,2.320848752E-1
5.177669382E0,-2.204210013E-1,-4.154200107E-2,4.991300032E-2,2.297878658E-1
5.182680151E0,-2.102569938E-1,-1.056940034E-1,2.311249971E-1,3.298454033E-1
5.187691140E0,-1.776849926E-1,-1.747850031E-1,3.505879939E-1,4.301554316E-1
5.192701911E0,-1.178480014E-1,-2.642270029E-1,3.802640140E-1,4.778124955E-1
5.197712755E0,-9.399600327E-2,-3.368139863E-1,3.476540148E-1,4.930945386E-1
5.202723740E0,-9.592799842E-2,-3.653500080E-1,2.587000132E-1,4.578302153E-1
5.207734588E0,-1.046520025E-1,-3.393639922E-1,1.572960019E-1,3.884095687E-1
5.212745368E0,-9.475599974E-2,-2.648069859E-1,5.812299997E-2,2.871928313E-1
5.217756366E0,-4.165299982E-2,-1.566559970E-1,-2.000099979E-2,1.633282394E-1
5.222767161E0,3.929499909E-2,-2.694400027E-2,-6.068199873E-2,7.715167577E-2
5.227778005E0,1.290580034E-1,8.464399725E-2,-7.403200120E-2,1.711762592E-1
5.232788781E0,2.095569968E-1,1.807329953E-1,-1.291480064E-1,3.053813322E-1
5.237799779E0,3.024080098E-1,2.639690042E-1,-2.069859952E-1,4.516341902E-1
5.242810627E0,3.633649945E-1,3.051539958E-1,-2.627280056E-1,5.423827849E-1
5.247821625E0,4.049560130E-1,3.130019903E-1,-2.803229988E-1,5.835585678E-1
5.252832387E0,4.117330015E-1,2.682369947E-1,-2.630310059E-1,5.573692312E-1
5.257843231E0,3.806909919E-1,1.949030012E-1,-3.083539903E-1,5.272523063E-1
5.262854002E0,2.545709908E-1,7.370799780E-2,-3.209629953E-1,4.162409190E-1
5.267865009E0,6.611800194E-2,-9.369499981E-2,-3.132080138E-1,3.335410066E-1
5.272875857E0,-1.481990069E-1,-2.925010026E-1,-3.186140060E-1,4.572030916E-1
5.277886642E0,-3.351320028E-1,-4.659030139E-1,-2.872000039E-1,6.417654711E-1
5.282897640E0,-4.571909904E-1,-5.496029854E-1,-2.424460053E-1,7.548954290E-1
5.287908488E0,-4.940809906E-1,-5.718979836E-1,-1.606460065E-1,7.726515827E-1
5.292919252E0,-4.654549956E-1,-5.342050195E-1,-1.340099983E-2,7.086627848E-1
5.297930250E0,-3.826490045E-1,-4.687249959E-1,1.680949926E-1,6.279962650E-1
5.302941103E0,-2.355210036E-1,-3.391999900E-1,3.579609990E-1,5.465005519E-1
5.307951872E0,-9.984599799E-2,-1.777029932E-1,5.427049994E-1,5.797208755E-1
5.312962860E0,3.789599985E-2,-4.834999796E-3,6.233040094E-1,6.244736762E-1
5.317973709E0,1.903419942E-1,1.391640007E-1,6.691600084E-1,7.094870053E-1
5.322984478E0,3.373979926E-1,2.609690130E-1,5.974149704E-1,7.340619034E-1
5.327995471E0,4.443899989E-1,3.663479984E-1,5.372099876E-1,7.875835815E-1
5.333006242E0,5.382649899E-1,4.561339915E-1,4.691779912E-1,8.472988876E-1
5.338017086E0,8.131359816E-1,5.695509911E-1,-7.040219903E-1,1.217056046E0
5.343028091E0,6.470230222E-1,6.922339797E-1,-2.174094915E0,2.371606075E0
5.348038862E0,2.220769972E-1,5.346350074E-1,-2.168668032E0,2.244609947E0
5.353049721E0,1.309600025E-1,3.559849858E-1,-1.791157007E0,1.830879367E0
5.358060721E0,1.039000042E-2,1.005040035E-1,-1.195515990E0,1.199778100E0
5.363071492E0,-9.835299850E-2,-1.989839971E-1,-5.902109742E-1,6.305687413E-1
5.368082327E0,-1.393589973E-1,-3.684319854E-1,-9.555400163E-2,4.053315004E-1
5.373093327E0,-2.455579937E-1,-3.936420083E-1,1.794359982E-1,4.974435007E-1
5.378104175E0,-4.642769992E-1,-4.090889990E-1,2.362550050E-1,6.623619619E-1
5.383114939E0,-6.993749738E-1,-4.274640083E-1,2.549969852E-1,8.584138249E-1
5.388125938E0,-7.400959730E-1,-4.143039882E-1,3.604359925E-1,9.215768815E-1
5.393136796E0,-6.252850294E-1,-3.829889894E-1,5.104439855E-1,8.934287863E-1
5.398147565E0,-4.830969870E-1,-2.899270058E-1,6.767510176E-1,8.805863429E-1
5.403158323E0,-3.199270070E-1,-1.566279978E-1,7.269700170E-1,8.095498904E-1
5.408169321E0,-1.923709959E-1,-3.708700091E-2,5.602800250E-1,5.935450717E-1
5.413180174E0,-9.467499703E-2,3.708999977E-2,3.937540054E-1,4.066709234E-1
5.418191172E0,-2.180000010E-4,7.992500067E-2,5.111770034E-1,5.173876516E-1
5.423201944E0,6.810999941E-3,1.103049964E-1,7.709890008E-1,7.788694507E-1
5.428212788E0,-1.496039927E-1,3.257200122E-2,7.336369753E-1,7.494434611E-1
5.433223788E0,-1.632039994E-1,-1.475040019E-1,9.833099693E-2,2.409604966E-1
5.438234573E0,-1.271850020E-1,-2.965649962E-1,-6.176329851E-1,6.968481370E-1
5.443245417E0,-1.358879954E-1,-3.887709975E-1,-1.224285960E0,1.291698319E0
5.448256417E0,-1.917600036E-1,-4.565449953E-1,-1.687276959E0,1.758439299E0
