"Time (s)","Linear Acceleration x (m/s^2)","Linear Acceleration y (m/s^2)","Linear Acceleration z (m/s^2)","Absolute acceleration (m/s^2)"
2.759929800E-2,1.709299982E-1,1.974709928E-1,1.190448999E0,1.218761945E0
3.261006700E-2,7.422400266E-2,9.160599858E-2,1.386739016E0,1.391742059E0
3.762107200E-2,2.771599963E-2,-3.221200034E-2,1.508231044E0,1.508829570E0
4.263192000E-2,4.074500129E-2,-1.214469969E-1,1.564504981E0,1.569740540E0
4.764268500E-2,1.039690003E-1,-1.855030060E-1,1.517186999E0,1.532017398E0
5.265368300E-2,1.696459949E-1,-2.060620040E-1,1.316812992E0,1.343591370E0
5.766445400E-2,1.702100039E-1,-1.829770058E-1,1.020908952E0,1.051050483E0
6.267528800E-2,1.728370041E-1,-1.124819964E-1,6.757969856E-1,7.065595483E-1
6.768605900E-2,1.860660017E-1,1.431099977E-2,3.343780041E-1,3.829282064E-1
7.269703800E-2,2.369060069E-1,1.566839963E-1,1.055299956E-2,2.842282474E-1
7.770781000E-2,3.076719940E-1,2.765940130E-1,-3.152709901E-1,5.201558431E-1
8.271863500E-2,3.787190020E-1,3.298360109E-1,-6.299300194E-1,8.056250405E-1
8.772963500E-2,4.285579920E-1,3.041110039E-1,-8.920879960E-1,1.035358125E0
9.274040100E-2,3.874419928E-1,2.018290013E-1,-1.098482013E0,1.182162838E0
9.775117000E-2,2.824000120E-1,7.267399877E-2,-1.224200964E0,1.258451142E0
1.027619990E-1,1.282140017E-1,-3.483799845E-2,-1.281687975E0,1.288556006E0
1.077729990E-1,-3.563100100E-2,-9.155400097E-2,-1.242969036E0,1.246845511E0
1.127837710E-1,-1.775269955E-1,-1.094129980E-1,-1.139731050E0,1.158651761E0
1.177946150E-1,-2.778770030E-1,-1.211690009E-1,-9.492890239E-1,9.965175394E-1
1.228056150E-1,-3.264349997E-1,-1.361390054E-1,-7.106720209E-1,7.938188453E-1
1.278163860E-1,-2.822760046E-1,-1.503109932E-1,-4.812409878E-1,5.778114102E-1
1.328271550E-1,-1.660500020E-1,-1.338540018E-1,-2.626709938E-1,3.383571308E-1
1.378380000E-1,1.851099916E-2,-9.434200078E-2,-2.862500027E-2,1.003118181E-1
1.428489950E-1,2.288659960E-1,-5.561900139E-2,2.234330028E-1,3.246466143E-1
1.478597660E-1,4.286870062E-1,-3.732400015E-2,4.036549926E-1,5.900025282E-1
1.528705860E-1,5.777209997E-1,-5.394300073E-2,5.010359883E-1,7.666214597E-1
1.578815860E-1,7.060059905E-1,-7.900500298E-2,5.804589987E-1,9.173978953E-1
1.628923570E-1,7.726820111E-1,-8.671499789E-2,6.118789911E-1,9.894204773E-1
1.679031870E-1,7.635430098E-1,-1.087090001E-1,5.605059862E-1,9.534057557E-1
1.729139590E-1,6.669899821E-1,-1.218549982E-1,4.372400045E-1,8.067856583E-1
1.779249570E-1,5.226539969E-1,-1.342789978E-1,2.287980020E-1,5.861284633E-1
1.829357320E-1,3.686099946E-1,-1.368709952E-1,5.400000009E-5,3.932009669E-1
1.879465760E-1,1.957899928E-1,-1.774789989E-1,-2.776350081E-1,3.832932481E-1
1.929575620E-1,1.568100043E-2,-2.244109958E-1,-5.211660266E-1,5.676444451E-1
1.979683330E-1,-1.395200044E-1,-2.519710064E-1,-7.661979795E-1,8.185441732E-1
2.029791030E-1,-1.910530031E-1,-2.087289989E-1,-9.626539946E-1,1.003380166E0
2.079899470E-1,-2.247679979E-1,-1.651010066E-1,-1.064365029E0,1.100296283E0
2.130009470E-1,-3.906059861E-1,-1.391129941E-1,-1.016131997E0,1.097474235E0
2.180117180E-1,-4.655610025E-1,-1.243439987E-1,-1.009212971E0,1.118355622E0
2.230225620E-1,-4.284859896E-1,-1.632950008E-1,-1.001736999E0,1.101699830E0
2.280333330E-1,-3.175989985E-1,-1.612900048E-1,-1.002982020E0,1.064357329E0
2.330443260E-1,-1.937199980E-1,-1.248930022E-1,-9.275900126E-1,9.557975366E-1
2.380551750E-1,-9.923599660E-2,-1.041600034E-1,-7.297620177E-1,7.438075637E-1
2.430659200E-1,-5.850899965E-2,-1.032920033E-1,-3.756439984E-1,3.939555235E-1
2.480766890E-1,-5.656800047E-2,-1.850499958E-1,4.788999911E-3,1.935623262E-1
2.530877010E-1,1.109299995E-2,-2.912810147E-1,4.395720065E-1,5.274383689E-1
2.580984720E-1,1.297920048E-1,-3.658969998E-1,8.509759903E-1,9.353537914E-1
2.631093160E-1,2.501580119E-1,-4.361769855E-1,1.230646968E0,1.329406391E0
2.681200880E-1,3.731339872E-1,-4.986760020E-1,1.560966969E0,1.680632204E0
2.731310860E-1,4.842880070E-1,-5.755310059E-1,1.792844057E0,1.944237801E0
2.781419540E-1,5.663020015E-1,-6.144570112E-1,1.992612958E0,2.160731769E0
2.831527230E-1,6.450309753E-1,-5.920950174E-1,2.098412991E0,2.273758683E0
2.881637210E-1,6.958349943E-1,-5.354279876E-1,2.110609055E0,2.285944017E0
2.931744820E-1,6.556879878E-1,-3.852480054E-1,2.070179939E0,2.205445022E0
2.981853270E-1,4.640559852E-1,-2.856630087E-1,2.008483887E0,2.081095585E0
3.031961170E-1,4.238229990E-1,-7.193999738E-2,1.688673019E0,1.742532027E0
3.082071150E-1,2.876130044E-1,1.002739966E-1,1.388177037E0,1.421200760E0
3.132178860E-1,1.671259999E-1,2.897639871E-1,1.066494942E0,1.117723458E0
3.182289520E-1,7.190400362E-2,4.555650055E-1,7.813109756E-1,9.072797256E-1
3.232397230E-1,1.446999959E-3,5.773289800E-1,5.076299906E-1,7.687646273E-1
3.282504770E-1,1.129600033E-2,6.903759837E-1,1.808740050E-1,7.137660711E-1
3.332613220E-1,5.294200033E-2,7.402369976E-1,-2.138430029E-1,7.723227939E-1
3.382723270E-1,1.514219940E-1,6.163089871E-1,-6.878169775E-1,9.358726315E-1
3.432830980E-1,3.052499890E-1,-2.712669969E-1,-1.824519992E0,1.869662146E0
3.482939660E-1,5.433499813E-1,3.776200116E-2,-2.732280016E0,2.786038273E0
3.533047370E-1,2.232069969E-1,4.410749972E-1,-2.754031897E0,2.798045783E0
3.583157350E-1,-6.255840063E-1,4.574109912E-1,-2.437285900E0,2.557526681E0
3.633265070E-1,-1.048071980E0,4.557250142E-1,-2.038923979E0,2.337381260E0
3.683373510E-1,-1.076241970E0,4.873189926E-1,-1.065101027E0,1.590665514E0
3.733481170E-1,-5.848289728E-1,3.822329938E-1,-7.145059705E-1,9.993226560E-1
3.783591150E-1,-2.035090029E-1,1.704709977E-1,4.309000075E-2,2.689479940E-1
3.833698860E-1,1.202120036E-1,-3.960099816E-2,3.727509975E-1,3.936527290E-1
3.883807450E-1,3.277480006E-1,-2.872720063E-1,6.066370010E-1,7.469621199E-1
3.933917450E-1,3.844349980E-1,-5.515050292E-1,8.276159763E-1,1.066253379E0
3.984025210E-1,3.586260080E-1,-7.344509959E-1,1.028743029E0,1.313903763E0
4.034133650E-1,2.426169962E-1,-8.256819844E-1,1.302719951E0,1.561311313E0
4.084241360E-1,1.650529951E-1,-7.745760083E-1,1.485402942E0,1.683339652E0
4.134352210E-1,1.490589976E-1,-6.187170148E-1,1.498337984E0,1.627896202E0
4.184459150E-1,1.747409999E-1,-4.417990148E-1,1.350185990E0,1.431336087E0
4.234567540E-1,2.589910030E-1,-2.635219991E-1,1.172315001E0,1.229163393E0
4.284677540E-1,3.442170024E-1,-1.329440027E-1,1.009152055E0,1.074498638E0
4.334785260E-1,3.747240007E-1,-2.311800048E-2,8.318549991E-1,9.126528684E-1
4.384893050E-1,3.756040037E-1,6.831499934E-2,5.784670115E-1,6.930868561E-1
4.435001490E-1,3.802439868E-1,1.092209965E-1,3.149119914E-1,5.056523291E-1
4.485109200E-1,3.580699861E-1,1.210630015E-1,1.304779947E-1,3.998685689E-1
4.535219180E-1,2.725600004E-1,1.109379977E-1,3.814300150E-2,2.967340252E-1
4.585326940E-1,1.095179990E-1,5.883499980E-2,-2.971100062E-2,1.278221141E-1
4.635435380E-1,-4.508100078E-2,-2.287800051E-2,-1.165169999E-1,1.270114593E-1
4.685545380E-1,-1.337530017E-1,-8.777000010E-2,-2.456119955E-1,2.931189020E-1
4.735653090E-1,-1.850239933E-1,-1.242230013E-1,-3.454239964E-1,4.110753817E-1
4.785761630E-1,-1.796929985E-1,-1.398150027E-1,-4.089800119E-1,4.680838161E-1
4.835869340E-1,-1.685499996E-1,-1.251450032E-1,-4.362669885E-1,4.841479727E-1
4.885979320E-1,-1.799129993E-1,-9.132599831E-2,-3.823930025E-1,4.323581081E-1
4.936087040E-1,-1.572300047E-1,-5.050799996E-2,-3.215939999E-1,3.615176803E-1
4.986195480E-1,-1.454979926E-1,-1.449999982E-4,-2.299569994E-1,2.721211283E-1
5.036305430E-1,-2.462349981E-1,4.384100065E-2,-1.096720025E-1,2.730964221E-1
5.086413140E-1,-1.903209984E-1,4.372000229E-3,-9.996300191E-2,2.150204608E-1
5.136521680E-1,-9.879100323E-2,-5.094000138E-3,-1.306570023E-1,1.638806377E-1
5.186631680E-1,-7.902599871E-2,-7.216399908E-2,-1.946900040E-1,2.221642385E-1
5.236740160E-1,-1.770019978E-1,-1.941020042E-1,-3.535650074E-1,4.404696468E-1
5.286846980E-1,-3.548879921E-1,-3.585680127E-1,-4.391269982E-1,6.688415562E-1
5.336955420E-1,-4.922130108E-1,-4.314599931E-1,-5.504009724E-1,8.552032531E-1
5.387065420E-1,-5.471730232E-1,-4.590240121E-1,-6.397439837E-1,9.588397811E-1
5.437172990E-1,-5.091419816E-1,-4.025140107E-1,-7.280309796E-1,9.753318376E-1
5.487281430E-1,-4.766040146E-1,-2.654080093E-1,-7.929480076E-1,9.624756313E-1
5.537389240E-1,-1.104519963E-1,-1.782680005E-1,-9.268079996E-1,9.502379658E-1
5.587499220E-1,2.225989997E-1,-1.873200014E-2,-8.304079771E-1,8.599294221E-1
5.637607660E-1,4.970239997E-1,1.376300007E-1,-7.047190070E-1,8.732718662E-1
5.687715350E-1,7.320719957E-1,2.912000120E-1,-5.756790042E-1,9.757731139E-1
5.737822990E-1,8.718119860E-1,4.222030044E-1,-3.958809972E-1,1.046438378E0
5.787932970E-1,9.989489913E-1,5.155940056E-1,-2.912319899E-1,1.161271862E0
5.838041450E-1,1.035262942E0,5.586810112E-1,-1.403460056E-1,1.184732389E0
5.888149150E-1,1.006932974E0,5.782549977E-1,1.377199963E-2,1.161241803E0
5.938259130E-1,8.835970163E-1,5.436699986E-1,1.330409944E-1,1.045954426E0
5.988366690E-1,8.400509953E-1,4.169299901E-1,2.023220062E-1,9.594011078E-1
6.038475130E-1,7.133100033E-1,2.727890015E-1,2.909049988E-1,8.172213399E-1
6.088582700E-1,4.966889918E-1,9.224700183E-2,3.417510092E-1,6.099206639E-1
6.138690400E-1,2.789480090E-1,-1.042999998E-1,2.887890041E-1,4.148367999E-1
6.188800380E-1,6.680800021E-2,-2.692320049E-1,2.613259852E-1,3.811042533E-1
6.238909000E-1,-1.119979993E-1,-3.877739906E-1,1.602939963E-1,4.342883661E-1
6.289016690E-1,-2.564339936E-1,-4.704810083E-1,4.129099846E-2,5.374157783E-1
6.339126670E-1,-3.633050025E-1,-4.992949963E-1,-8.073399961E-2,6.227391081E-1
6.389234380E-1,-4.759590030E-1,-5.029619932E-1,-1.746869981E-1,7.141591464E-1
6.439342820E-1,-5.292860270E-1,-4.805510044E-1,-3.210920095E-1,7.836919323E-1
6.489452770E-1,-5.286269784E-1,-4.157190025E-1,-4.197120070E-1,7.927338394E-1
6.539560490E-1,-4.718300104E-1,-3.198649883E-1,-4.428420067E-1,7.218353083E-1
6.589668040E-1,-3.772239983E-1,-2.373189926E-1,-3.965429962E-1,5.965438768E-1
6.639776480E-1,-2.826440036E-1,-1.514649987E-1,-3.667800128E-1,4.871928329E-1
6.689886480E-1,-1.737120003E-1,-8.843400329E-2,-3.513189852E-1,4.017728977E-1
6.739994190E-1,-6.223300099E-2,1.115600020E-2,-3.378039896E-1,3.436698098E-1
6.790102640E-1,8.656500280E-2,1.193199977E-1,-2.768009901E-1,3.136073177E-1
6.840210350E-1,2.463440001E-1,2.227869928E-1,-1.500390023E-1,3.644600290E-1
6.890320330E-1,3.852260113E-1,2.973240018E-1,-8.612199873E-2,4.941838124E-1
6.940428810E-1,4.927099943E-1,3.741869926E-1,-2.741700038E-2,6.192985838E-1
6.990536500E-1,5.469589829E-1,4.131070077E-1,7.027999964E-3,6.854713135E-1
7.040644190E-1,5.241429806E-1,3.919300139E-1,6.649400294E-2,6.578422701E-1
7.090754120E-1,4.639309943E-1,3.302229941E-1,1.078059971E-1,5.795699494E-1
7.140862610E-1,3.627870083E-1,2.447970062E-1,1.287350059E-1,4.561936972E-1
7.190972590E-1,2.285919935E-1,1.543699950E-1,1.201699972E-1,3.008740983E-1
7.241080300E-1,7.150100172E-2,2.620300092E-2,1.174800023E-1,1.400019338E-1
7.291187990E-1,-8.470100164E-2,-8.082199842E-2,9.030599892E-2,1.478567839E-1
7.341296620E-1,-2.241040021E-1,-1.978340000E-1,5.766100064E-2,3.044432399E-1
7.391404340E-1,-3.640770018E-1,-2.981680036E-1,8.857300133E-2,4.788542557E-1
7.441514220E-1,-4.586359859E-1,-3.426449895E-1,1.217160001E-1,5.852925260E-1
7.491622700E-1,-4.605529904E-1,-3.360460103E-1,9.144599736E-2,5.774065712E-1
7.541730390E-1,-3.867549896E-1,-3.060500026E-1,1.987800002E-2,4.936002036E-1
7.591840130E-1,-2.447340041E-1,-2.198430002E-1,-9.247000329E-3,3.291066461E-1
7.641947840E-1,-6.185799837E-2,-9.017500281E-2,-3.381200135E-2,1.144604496E-1
7.692056480E-1,8.894599974E-2,4.302800074E-2,-3.742599860E-2,1.056574895E-1
7.742164200E-1,2.046560049E-1,1.555539966E-1,3.600199893E-2,2.595713199E-1
7.792274180E-1,2.382439971E-1,2.459120005E-1,1.050280035E-1,3.581393523E-1
7.842381890E-1,2.437590063E-1,3.197349906E-1,1.859900057E-1,4.429911958E-1
7.892490330E-1,2.130440027E-1,3.233779967E-1,2.684549987E-1,4.711997052E-1
7.942600330E-1,1.844619960E-1,2.718659937E-1,3.303509951E-1,4.659067787E-1
7.992708040E-1,1.345500052E-1,1.797430068E-1,3.716079891E-1,4.341701855E-1
8.042815740E-1,7.301100343E-2,-1.435500011E-2,3.484869897E-1,3.563423279E-1
8.092924220E-1,2.793920040E-1,-2.045349926E-1,-5.577600002E-2,3.507212815E-1
8.143031930E-1,5.499789715E-1,-2.031459957E-1,-4.418390095E-1,7.341436338E-1
8.193141910E-1,-5.722659826E-1,-3.005999923E-1,9.031130075E-1,1.110613261E0
8.243249670E-1,-6.838449836E-1,-1.402499974E-1,4.507670105E-1,8.309662575E-1
8.293358110E-1,-4.158709943E-1,6.889899820E-2,7.518400252E-2,4.281920015E-1
8.343468110E-1,-2.593129873E-1,5.422899872E-2,4.405400157E-2,2.685605421E-1
8.393575830E-1,1.667079926E-1,7.304500043E-2,-2.995769978E-1,3.505331717E-1
8.443684270E-1,2.136860043E-1,5.045500025E-2,-5.604999885E-2,2.266032168E-1
8.493791880E-1,-5.724199861E-2,-6.210700050E-2,3.474259973E-1,3.575454509E-1
8.543901860E-1,-4.475200176E-2,-5.157199875E-2,1.535100043E-1,1.680111131E-1
8.594009530E-1,4.044099897E-2,-4.321400076E-2,-1.063549966E-1,1.217140483E-1
8.644117970E-1,8.848900348E-2,-1.165859997E-1,-2.177740037E-1,2.623892448E-1
8.694225730E-1,9.464000352E-3,-2.123370022E-1,-1.214179993E-1,2.447833743E-1
8.744335710E-1,-1.834529936E-1,-3.107390106E-1,1.665769964E-1,3.974438694E-1
8.794444190E-1,-1.975059956E-1,-3.108679950E-1,1.628389955E-1,4.026959983E-1
8.844551790E-1,-1.026600003E-1,-2.779389918E-1,8.049000055E-3,2.964016620E-1
8.894661770E-1,-3.061500005E-2,-2.700439990E-1,-7.428500056E-2,2.817433245E-1
8.944769570E-1,-4.370300099E-2,-2.613250017E-1,-4.703100026E-2,2.690959379E-1
8.994878020E-1,-5.147499964E-2,-2.047439963E-1,-2.929999959E-3,2.111358911E-1
9.044985780E-1,-4.991999827E-3,-1.396249980E-1,-3.594999900E-3,1.397604527E-1
9.095095760E-1,4.979500175E-2,-7.825600356E-2,-1.774499938E-2,9.443743588E-2
9.145203470E-1,1.197850034E-1,-1.211300027E-2,-9.721499681E-2,1.547447169E-1
9.195311770E-1,1.530299932E-1,3.898100182E-2,-9.730300307E-2,1.854873897E-1
9.245421770E-1,1.529570073E-1,6.226300076E-2,-3.348299861E-2,1.685041202E-1
9.295529330E-1,1.231800020E-1,1.775600016E-2,5.719999899E-4,1.244544720E-1
9.345637780E-1,4.829299822E-2,-3.326100111E-2,-3.001400083E-2,6.587372859E-2
9.395745490E-1,-3.600800037E-2,-8.318000287E-2,-2.274099924E-2,9.344860627E-2
9.445855280E-1,-1.342470050E-1,-1.250240058E-1,-1.567300037E-2,1.841165482E-1
9.495962990E-1,-2.275370061E-1,-1.660789996E-1,-8.763000369E-3,2.818370335E-1
9.546071430E-1,-3.119750023E-1,-2.081560045E-1,6.434799731E-2,3.805233095E-1
9.596179200E-1,-3.460690081E-1,-2.169159949E-1,9.218399972E-2,4.187053821E-1
9.646289180E-1,-3.216750026E-1,-2.108100057E-1,4.475700110E-2,3.871935626E-1
9.696396740E-1,-2.934089899E-1,-2.429520041E-1,-8.703400195E-2,3.907549477E-1
9.746504430E-1,-2.519080043E-1,-2.591220140E-1,-2.690519989E-1,4.505450464E-1
9.796612870E-1,-2.139469981E-1,-2.548910081E-1,-4.651019871E-1,5.718938734E-1
9.846722780E-1,-2.010039985E-1,-2.123930007E-1,-5.660030246E-1,6.370814846E-1
9.896830490E-1,-1.823900044E-1,-1.362490058E-1,-6.389619708E-1,6.783084147E-1
9.946938190E-1,-1.024880037E-1,-4.074399918E-2,-6.915609837E-1,7.003002631E-1
9.997046820E-1,1.903999946E-3,8.440399915E-2,-6.790959835E-1,6.843237648E-1
1.004715453E0,1.026770025E-1,1.926099956E-1,-6.312199831E-1,6.678920903E-1
1.009726465E0,2.025119960E-1,3.065969944E-1,-5.177739859E-1,6.349037139E-1
1.014737313E0,2.789320052E-1,3.661490083E-1,-3.473579884E-1,5.766504416E-1
1.019748069E0,3.751040101E-1,4.139919877E-1,-2.010380030E-1,5.937243998E-1
1.024759067E0,4.769380093E-1,4.075610042E-1,-6.245800108E-2,6.304576423E-1
1.029769828E0,4.425669909E-1,3.789449930E-1,1.089930013E-1,5.927430501E-1
1.034780672E0,4.575929940E-1,2.271060050E-1,1.388760060E-1,5.293911887E-1
1.039791443E0,4.663650095E-1,1.062360033E-1,1.430830061E-1,4.992546016E-1
1.044802460E0,3.874309957E-1,-2.660200000E-2,1.482509971E-1,4.156787233E-1
1.049813308E0,2.858499885E-1,-1.114270017E-1,7.023199648E-2,3.147359622E-1
1.054824078E0,1.313270032E-1,-1.371989995E-1,5.683000199E-3,1.900069571E-1
1.059835081E0,-2.402699925E-2,-1.233429983E-1,-2.611299977E-2,1.283459414E-1
1.064845852E0,-1.410699934E-1,-9.429399669E-2,-5.372000113E-2,1.779829749E-1
1.069856696E0,-1.792600006E-1,-7.150500268E-2,-6.811500341E-2,2.046625684E-1
1.074867467E0,-1.617940068E-1,-8.733899891E-2,-4.665699974E-2,1.896899497E-1
1.079878460E0,-1.224960014E-1,-9.221199900E-2,-5.584299937E-2,1.631770931E-1
1.084889232E0,-8.010900021E-2,-1.031349972E-1,-1.001579985E-1,1.645779579E-1
1.089900081E0,-4.366699979E-2,-1.194759980E-1,-1.345729977E-1,1.851788667E-1
1.094911081E0,-1.263600029E-2,-1.364849955E-1,-1.972469985E-1,2.401961718E-1
1.099921857E0,-4.170000029E-4,-1.351030022E-1,-2.687700093E-1,3.008160783E-1
1.104932626E0,3.743800148E-2,-1.003120020E-1,-2.757309973E-1,2.957899332E-1
1.109943470E0,8.642599732E-2,-1.016299985E-2,-2.161200047E-1,2.329819649E-1
1.114954484E0,1.743710041E-1,1.211159974E-1,-1.069729999E-1,2.377342100E-1
1.119965256E0,3.148129880E-1,2.527630031E-1,-3.409000114E-3,4.037424606E-1
1.124976100E0,4.952009916E-1,3.142600060E-1,1.029310003E-1,5.954646625E-1
1.129986881E0,6.522420049E-1,2.802000046E-1,1.588640064E-1,7.274403398E-1
1.134997879E0,7.704859972E-1,1.082149968E-1,1.066040024E-1,7.853174968E-1
1.140008683E0,7.810779810E-1,-1.743219942E-1,-2.788100019E-2,8.007798201E-1
1.145019527E0,6.240000129E-1,-4.382649958E-1,-1.790650040E-1,7.832729398E-1
1.150030527E0,2.965320051E-1,-5.849220157E-1,-3.206070065E-1,7.299683877E-1
1.155041319E0,9.154000320E-3,-6.052939892E-1,-4.647279978E-1,7.631754195E-1
1.160052163E0,-2.947959900E-1,-5.045830011E-1,-4.605790079E-1,7.440710337E-1
1.165062856E0,-5.492699742E-1,-3.683150113E-1,-3.260230124E-1,7.373224917E-1
1.170073700E0,-6.915659904E-1,-2.424560040E-1,-1.595579982E-1,7.500047919E-1
1.175084482E0,-7.110829949E-1,-1.588319987E-1,-3.074200079E-2,7.292542082E-1
1.180095480E0,-6.253560185E-1,-1.104030013E-1,1.052990034E-1,6.436977961E-1
1.185106328E0,-4.670999944E-1,-9.500399977E-2,2.220509946E-1,5.258467543E-1
1.190117097E0,-3.025279939E-1,-1.199410036E-1,2.790600061E-1,4.286998000E-1
1.195128095E0,-1.565600038E-1,-1.565449983E-1,2.886100113E-1,3.637486906E-1
1.200138852E0,-7.165899873E-2,-2.004539967E-1,2.110089958E-1,2.997359057E-1
1.205149696E0,-1.755299978E-2,-2.347469926E-1,1.062659994E-1,2.582764429E-1
1.210160710E0,2.289999975E-3,-2.329619974E-1,1.282500010E-2,2.333259886E-1
1.215171482E0,1.640300080E-2,-1.963319927E-1,8.643000387E-3,1.972055052E-1
1.220182251E0,4.560400173E-2,-1.076499969E-1,1.075560004E-1,1.588601272E-1
1.225193109E0,1.974460036E-1,4.157400131E-2,4.881399870E-2,2.075960702E-1
1.230204109E0,3.896259964E-1,1.926809996E-1,5.144400150E-2,4.376995202E-1
1.235214871E0,5.592169762E-1,3.319480121E-1,3.632599860E-2,6.513314727E-1
1.240225716E0,6.546350121E-1,4.124929905E-1,-3.257000074E-2,7.744406183E-1
1.245236487E0,6.577919722E-1,4.385170043E-1,-1.011260003E-1,7.970030800E-1
1.250247494E0,5.996019840E-1,3.781490028E-1,-2.014960051E-1,7.369666530E-1
1.255258265E0,4.889479876E-1,2.355919927E-1,-3.038989902E-1,6.220356242E-1
1.260269119E0,3.295089900E-1,5.490899831E-2,-3.994460106E-1,5.207190106E-1
1.265279890E0,1.453610063E-1,-1.211460009E-1,-5.022130013E-1,5.366787440E-1
1.270290888E0,-3.595200181E-2,-2.406489998E-1,-5.686990023E-1,6.185653100E-1
1.275301655E0,-1.974280030E-1,-2.968960106E-1,-5.581560135E-1,6.623165353E-1
1.280312499E0,-3.318519890E-1,-2.721059918E-1,-4.841519892E-1,6.469702946E-1
1.285323499E0,-3.949599862E-1,-1.800830066E-1,-3.816399872E-1,5.779899306E-1
1.290334236E0,-4.129079878E-1,-8.089700341E-2,-2.269160002E-1,4.780462349E-1
1.295345080E0,-3.756200075E-1,6.033000071E-3,-5.603300035E-2,3.798242808E-1
1.300355851E0,-3.145430088E-1,5.439199880E-2,1.021939963E-1,3.351707129E-1
1.305366612E0,-2.482759953E-1,6.150000170E-2,2.122070044E-1,3.323477588E-1
1.310377610E0,-2.133989930E-1,3.682199866E-2,2.696369886E-1,3.458310215E-1
1.315388458E0,-2.318059951E-1,-1.638199948E-2,3.243969977E-1,3.990436084E-1
1.320399471E0,-2.877900004E-1,-6.415099651E-2,3.978950083E-1,4.952361784E-1
1.325410242E0,-3.270289898E-1,-6.097700074E-2,5.449920297E-1,6.385001701E-1
1.330421001E0,-3.081409931E-1,-1.498600002E-2,7.135189772E-1,7.773575642E-1
1.335431771E0,-1.833290011E-1,2.756400034E-2,8.510079980E-1,8.709672264E-1
1.340442601E0,5.748999771E-3,-3.118900023E-2,8.924499750E-1,8.930133048E-1
1.345453372E0,1.884009987E-1,-1.601960063E-1,8.141930103E-1,8.509218265E-1
1.350464365E0,2.699350119E-1,-3.098129928E-1,6.198310256E-1,7.436662568E-1
1.355475213E0,2.114869952E-1,-3.838680089E-1,3.333640099E-1,5.506477644E-1
1.360485992E0,8.861400187E-2,-3.999719918E-1,3.713399917E-2,4.113501786E-1
1.365496762E0,-4.386400059E-2,-3.425090015E-1,-2.559649944E-1,4.298308330E-1
1.370507760E0,-1.305119991E-1,-2.308699936E-1,-5.053930283E-1,5.707507765E-1
1.375518608E0,-1.731339991E-1,-8.639200032E-2,-7.068179846E-1,7.328237323E-1
1.380529377E0,-1.754869968E-1,4.644899815E-2,-8.804290295E-1,8.989485366E-1
1.385540346E0,-1.438609958E-1,1.811800003E-1,-9.727690220E-1,9.999008695E-1
1.390551117E0,-1.048189998E-1,2.718479931E-1,-1.011834979E0,1.052947472E0
1.395561947E0,-6.070100144E-2,3.352710009E-1,-9.590950012E-1,1.017818489E0
1.400572718E0,-5.082200095E-2,3.562049866E-1,-8.659070134E-1,9.376885539E-1
1.405583712E0,-5.494999886E-2,3.147130013E-1,-7.526789904E-1,8.176731854E-1
1.410594560E0,-7.908900082E-2,2.380239964E-1,-6.200609803E-1,6.688692789E-1
1.415605329E0,-7.615000010E-2,1.615049988E-1,-5.060750246E-1,5.366512999E-1
1.420616083E0,-7.049199939E-2,1.000320017E-1,-3.299539983E-1,3.519164167E-1
1.425627081E0,-7.613500208E-2,4.875399917E-2,-1.322669983E-1,1.602125145E-1
1.430637935E0,-8.109699935E-2,2.848199941E-2,6.850499660E-2,1.099130663E-1
1.435648704E0,-6.198799983E-2,1.929499954E-2,2.657989860E-1,2.736127008E-1
1.440659702E0,-3.783600032E-2,1.542199962E-2,4.294379950E-1,4.313773203E-1
1.445670478E0,1.888200082E-2,-1.184399985E-2,6.022769809E-1,6.026892831E-1
1.450681247E0,9.607200325E-2,-8.249600232E-2,6.893590093E-1,7.008931901E-1
1.455691993E0,1.398150027E-1,-2.446849942E-1,6.553069949E-1,7.133345912E-1
1.460702837E0,1.322979927E-1,-4.626460075E-1,5.435979962E-1,7.259771819E-1
1.465713837E0,3.962400183E-2,-6.372960210E-1,3.774349988E-1,7.417367850E-1
1.470724685E0,-9.924300015E-2,-7.108899951E-1,2.042320073E-1,7.462737239E-1
1.475735454E0,-2.702350020E-1,-6.612129807E-1,8.043400198E-2,7.188179122E-1
1.480746466E0,-4.175469875E-1,-5.440310240E-1,8.709000424E-3,6.858506314E-1
1.485757237E0,-5.215240121E-1,-3.794550002E-1,-4.880899936E-2,6.468042291E-1
1.490768096E0,-5.627170205E-1,-2.195450068E-1,-6.196999922E-2,6.071990909E-1
1.495778867E0,-5.077999830E-1,-8.588100225E-2,-1.054769978E-1,5.257012140E-1
1.500789636E0,-3.544409871E-1,-3.770000068E-3,-1.328749955E-1,3.785477390E-1
1.505800630E0,-1.837749928E-1,2.999100089E-2,-1.783140004E-1,2.578150322E-1
1.510811401E0,-7.313999813E-3,4.032500088E-2,-2.257840037E-1,2.294733462E-1
1.515822260E0,1.427370012E-1,6.621100008E-2,-2.444750071E-1,2.907331717E-1
1.520833260E0,2.952879965E-1,1.301169991E-1,-1.872709990E-1,3.730896158E-1
1.525844041E0,4.230769873E-1,2.176200002E-1,-1.327400059E-1,4.939357355E-1
1.530854885E0,5.042430162E-1,2.772969902E-1,-5.279799923E-2,5.778773822E-1
1.535865656E0,5.407119989E-1,3.285729885E-1,1.200699992E-2,6.328300266E-1
1.540876654E0,5.528330207E-1,3.333399892E-1,2.584999986E-2,6.460712961E-1
1.545887425E0,5.299869776E-1,2.898379862E-1,1.711799949E-2,6.043056185E-1
1.550898270E0,4.408339858E-1,1.798699945E-1,-2.421800047E-2,4.767329751E-1
1.555909041E0,3.079839945E-1,5.630800128E-2,-7.426500320E-2,3.217763549E-1
1.560920039E0,1.555150002E-1,-4.538600147E-2,-1.254490018E-1,2.048957210E-1
1.565930810E0,8.994000033E-3,-1.345749944E-1,-1.374199986E-1,1.925501940E-1
1.570941654E0,-9.556099772E-2,-1.809269935E-1,-1.194740012E-1,2.369399043E-1
1.575952445E0,-1.970899999E-1,-2.367700040E-1,-6.960199773E-2,3.158305574E-1
1.580963443E0,-2.866620123E-1,-3.312110007E-1,-4.977099970E-2,4.408548386E-1
1.585974223E0,-3.517909944E-1,-3.791350126E-1,-1.988000004E-3,5.172080951E-1
1.590985067E0,-3.680160046E-1,-3.942080140E-1,1.744000055E-2,5.395738055E-1
1.595995814E0,-3.487240076E-1,-3.634609878E-1,2.139499970E-2,5.041528232E-1
1.601006812E0,-2.858789861E-1,-2.837060094E-1,-3.427000018E-3,4.027749232E-1
1.606017660E0,-2.205740064E-1,-1.929839998E-1,7.257000078E-3,2.931695424E-1
1.611028445E0,-1.201900020E-1,-1.055160016E-1,1.964600012E-2,1.611372970E-1
1.616039214E0,8.169999928E-4,-6.610999815E-3,5.496900156E-2,5.537114718E-2
1.621049992E0,1.241080016E-1,8.717799932E-2,7.255999744E-2,1.681301664E-1
1.626060990E0,2.250739932E-1,1.335600019E-1,5.296700075E-2,2.670244927E-1
1.631071824E0,2.886349857E-1,1.640229970E-1,8.174999617E-3,3.320851233E-1
1.636082594E0,3.604429960E-1,1.917860061E-1,1.370999962E-2,4.085204886E-1
1.641093592E0,4.104140103E-1,2.106039971E-1,4.981499910E-2,4.639776262E-1
1.646104377E0,4.561589956E-1,2.151619941E-1,2.857599966E-2,5.051656172E-1
1.651115221E0,5.071640015E-1,1.748249978E-1,-2.411900088E-2,5.369923933E-1
1.656125997E0,4.933249950E-1,1.243989989E-1,-2.059200034E-2,5.091843400E-1
1.661136995E0,4.120489955E-1,6.890500337E-2,-2.050000057E-2,4.182732650E-1
1.666147766E0,2.981149852E-1,-2.318800054E-2,-8.786900342E-2,3.116587710E-1
1.671158620E0,1.685940027E-1,-1.094679981E-1,-2.053239942E-1,2.873414745E-1
1.676169620E0,3.051000088E-2,-1.970330030E-1,-3.083580136E-1,3.672022998E-1
1.681180387E0,-8.395499736E-2,-2.599839866E-1,-4.087859988E-1,4.916768326E-1
1.686191231E0,-1.577910036E-1,-2.818619907E-1,-4.564749897E-1,5.592080103E-1
1.691202002E0,-1.975910068E-1,-2.816860080E-1,-4.494670033E-1,5.660475246E-1
1.696212776E0,-2.302200049E-1,-2.651819885E-1,-4.683820009E-1,5.854096313E-1
1.701223774E0,-2.400490046E-1,-2.537580132E-1,-4.632970095E-1,5.802247606E-1
1.706234545E0,-2.398519963E-1,-2.165009975E-1,-4.294120073E-1,5.373977429E-1
1.711245385E0,-2.298579961E-1,-1.774110049E-1,-3.978230059E-1,4.925165044E-1
1.716256156E0,-2.033669949E-1,-1.312520057E-1,-3.163880110E-1,3.983548633E-1
1.721267154E0,-1.376069933E-1,-8.531600237E-2,-2.354850024E-1,2.857755959E-1
1.726277992E0,-4.257800058E-2,-5.875200033E-2,-1.767289937E-1,1.910440286E-1
1.731288762E0,4.629199952E-2,-4.856399819E-2,-1.118490025E-1,1.304285648E-1
1.736299536E0,1.460060030E-1,-5.423599854E-2,-4.364300147E-2,1.617529228E-1
1.741310534E0,2.218540013E-1,-5.222899839E-2,-9.809999727E-3,2.281300117E-1
1.746321372E0,2.562319934E-1,-7.549499720E-2,1.578200050E-2,2.675881175E-1
1.751332141E0,2.316769958E-1,-9.010600299E-2,6.657200307E-2,2.573424833E-1
1.756342887E0,2.197960019E-1,-6.733699888E-2,1.616570055E-1,2.810294314E-1
1.761353885E0,1.785719991E-1,-3.115499951E-2,2.701570094E-1,3.253358304E-1
1.766364733E0,1.462959945E-1,3.464000067E-3,3.399739861E-1,3.701308263E-1
1.771375492E0,1.134739965E-1,4.375800118E-2,4.308930039E-1,4.477274745E-1
1.776386261E0,9.209399670E-2,3.963499889E-2,4.925220013E-1,5.026232775E-1
1.781397259E0,8.910900354E-2,1.197300013E-2,4.919050038E-1,5.000542970E-1
1.786408122E0,1.063060015E-1,-4.181599990E-2,4.530310035E-1,4.672115516E-1
1.791418892E0,1.152670011E-1,-1.034950018E-1,3.480359912E-1,3.809550474E-1
1.796429890E0,9.293500334E-2,-1.870069951E-1,2.317389995E-1,3.119479042E-1
1.801440675E0,4.693700001E-2,-2.573930025E-1,7.871899754E-2,2.732232060E-1
1.806451444E0,-2.251599915E-2,-3.060019910E-1,-1.101889983E-1,3.260150366E-1
1.811462288E0,-8.736500144E-2,-3.074989915E-1,-3.055180013E-1,4.421872029E-1
1.816473054E0,-1.506139934E-1,-2.764799893E-1,-4.688780010E-1,5.647763622E-1
1.821484053E0,-2.058259994E-1,-2.152460068E-1,-5.956850052E-1,6.659848428E-1
1.826494829E0,-2.398290038E-1,-1.260699928E-1,-6.910259724E-1,7.422455716E-1
1.831505673E0,-2.698209882E-1,-4.324100167E-2,-7.013419867E-1,7.526976366E-1
1.836516668E0,-2.334679961E-1,4.304699972E-2,-6.894749999E-1,7.292023895E-1
1.841527516E0,-1.190069988E-1,1.551419944E-1,-5.968120098E-1,6.280256995E-1
1.846538285E0,4.820600152E-2,2.561550140E-1,-4.224759936E-1,4.964123034E-1
1.851549293E0,2.673279941E-1,3.703800142E-1,-2.052360028E-1,5.007668401E-1
1.856559834E0,4.519549906E-1,4.434430003E-1,9.271999821E-3,6.332384843E-1
1.861570832E0,6.062300205E-1,5.146390200E-1,1.317089945E-1,8.060492652E-1
1.866581690E0,7.059730291E-1,5.588740110E-1,2.834270000E-1,9.439644816E-1
1.871592459E0,7.207930088E-1,5.736330152E-1,5.419099927E-1,1.068767439E0
1.876603457E0,6.307849884E-1,5.518379807E-1,7.617809772E-1,1.132574552E0
1.881614237E0,4.321979880E-1,4.785459936E-1,8.747169971E-1,1.086706581E0
1.886625082E0,1.974849999E-1,3.489089906E-1,9.239410162E-1,1.007176653E0
1.891635843E0,-5.156200007E-2,1.632719934E-1,9.403139949E-1,9.557754928E-1
1.896646612E0,-2.776649892E-1,-5.203599855E-2,9.285079837E-1,9.705321567E-1
1.901657610E0,-4.465839863E-1,-2.488510013E-1,7.992330194E-1,9.487557625E-1
1.906668454E0,-5.883460045E-1,-4.325850010E-1,6.462140083E-1,9.751273500E-1
1.911679224E0,-7.107729912E-1,-6.276310086E-1,4.363119900E-1,1.043784978E0
1.916690222E0,-7.820780277E-1,-8.510209918E-1,1.671299934E-1,1.167824989E0
1.921701070E0,-7.864329815E-1,-1.029059052E0,-5.143399909E-2,1.296180861E0
1.926711762E0,-7.158089876E-1,-1.072878957E0,-2.040340006E-1,1.305787745E0
1.931722620E0,-5.784059763E-1,-9.829549789E-1,-3.320550025E-1,1.187861309E0
1.936733620E0,-3.682110012E-1,-7.306320071E-1,-3.720250130E-1,8.987797736E-1
1.941744381E0,-9.694799781E-2,-3.925580084E-1,-3.028810024E-1,5.052104570E-1
1.946755226E0,1.744789928E-1,-5.427300185E-2,-2.158129960E-1,2.827785829E-1
1.951765997E0,3.965499997E-1,2.582060099E-1,-1.725949943E-1,5.036976056E-1
1.956776995E0,5.837870240E-1,4.839580059E-1,-1.880780011E-1,7.812784237E-1
1.961787766E0,6.708109975E-1,6.148650050E-1,-2.602249980E-1,9.464477895E-1
1.966798620E0,6.471080184E-1,6.555979848E-1,-3.327839971E-1,9.794399899E-1
1.971809392E0,5.373589993E-1,6.167780161E-1,-4.539200068E-1,9.355282934E-1
1.976820161E0,3.928140104E-1,5.188329816E-1,-5.839269757E-1,8.743347314E-1
1.981831159E0,2.099850029E-1,3.538869917E-1,-7.025730014E-1,8.142103700E-1
1.986842007E0,4.071800038E-2,1.667580009E-1,-7.494189739E-1,7.688270188E-1
1.991852776E0,-1.063169986E-1,3.038000083E-3,-7.750530243E-1,7.823168949E-1
1.996863774E0,-2.180500031E-1,-1.676809937E-1,-7.732089758E-1,8.206794988E-1
2.001874559E0,-2.913810015E-1,-2.854489982E-1,-7.036780119E-1,8.133552502E-1
2.006885404E0,-3.325409889E-1,-3.669709861E-1,-5.835459828E-1,7.653607829E-1
2.011896175E0,-3.545520008E-1,-3.847199976E-1,-4.454430044E-1,6.871215817E-1
2.016906920E0,-3.233099878E-1,-3.754009902E-1,-2.985590100E-1,5.784399140E-1
2.021917918E0,-2.219150066E-1,-3.379159868E-1,-1.684920043E-1,4.379760722E-1
2.026928689E0,-7.794799656E-2,-2.658460140E-1,-2.130899951E-2,2.778561981E-1
2.031939534E0,7.519699633E-2,-1.816689968E-1,1.007940024E-1,2.209471511E-1
2.036950534E0,2.099220008E-1,-1.097859964E-1,1.865089983E-1,3.015059168E-1
2.041961305E0,3.063049912E-1,-4.132800177E-2,2.272299975E-1,3.836198941E-1
2.046972149E0,3.979449868E-1,-4.645999987E-3,2.705110013E-1,4.812047378E-1
2.051982920E0,4.594190121E-1,1.929800026E-2,2.974849939E-1,5.476637318E-1
2.056993689E0,4.800390005E-1,2.550599910E-2,2.966279984E-1,5.648682744E-1
2.062004687E0,4.355970025E-1,-4.659999977E-4,2.444899976E-1,4.995200944E-1
2.067015536E0,3.326149881E-1,-3.280000016E-2,1.442250013E-1,3.640184354E-1
2.072026305E0,1.727399975E-1,-9.290300310E-2,1.515499968E-2,1.967225171E-1
2.077037055E0,-7.619999815E-4,-1.500509977E-1,-1.495240033E-1,2.118332130E-1
2.082048053E0,-1.622139961E-1,-1.972949952E-1,-3.186190128E-1,4.083586303E-1
2.087058824E0,-2.963289917E-1,-2.292629927E-1,-4.426609874E-1,5.799320140E-1
2.092069664E0,-3.627189994E-1,-2.401500046E-1,-4.823800027E-1,6.495595156E-1
2.097080664E0,-3.566859961E-1,-2.062380016E-1,-4.859299958E-1,6.370925944E-1
2.102091440E0,-3.105340004E-1,-1.627999991E-1,-4.397520125E-1,5.624206945E-1
2.107102284E0,-2.389470041E-1,-9.794899821E-2,-3.869239986E-1,4.651879810E-1
2.112113045E0,-1.493140012E-1,-3.525599837E-2,-3.134579957E-1,3.489893572E-1
2.117124043E0,-5.825699866E-2,2.812300064E-2,-2.197369933E-1,2.290614051E-1
2.122134891E0,4.850599915E-2,7.384300232E-2,-8.256000280E-2,1.209205318E-1
2.127145656E0,1.523669958E-1,1.202540025E-1,3.180000000E-3,1.941309840E-1
2.132156425E0,2.376929969E-1,1.363289952E-1,5.677700043E-2,2.798342071E-1
2.137167423E0,3.122589886E-1,1.410389990E-1,8.330199867E-2,3.526143760E-1
2.142178199E0,3.462130129E-1,9.757000208E-2,1.462900043E-1,3.883093110E-1
2.147189043E0,3.385699987E-1,7.723300159E-2,2.033669949E-1,4.024334916E-1
2.152199825E0,3.207710087E-1,8.154000342E-2,2.290620059E-1,4.025074095E-1
2.157210823E0,2.931460142E-1,3.232499957E-2,2.514309883E-1,3.875526198E-1
2.162221613E0,2.255370021E-1,-6.705000065E-3,2.283869982E-1,3.210490886E-1
2.167232382E0,1.605419964E-1,-6.230900064E-2,1.769730002E-1,2.469323530E-1
2.172243226E0,8.385799825E-2,-1.037869975E-1,1.190980002E-1,1.788525604E-1
2.177253997E0,-2.339000115E-3,-1.285330057E-1,1.047829986E-1,1.658483683E-1
2.182264995E0,-9.542500228E-2,-1.556079984E-1,9.332499653E-2,2.050105734E-1
2.187275834E0,-2.092069983E-1,-1.757369936E-1,6.834699959E-2,2.816422756E-1
2.192286603E0,-2.922959924E-1,-1.750420034E-1,4.439900070E-2,3.435810259E-1
2.197297601E0,-3.275499940E-1,-1.841530055E-1,5.896700174E-2,3.803661858E-1
2.202308372E0,-3.116250038E-1,-1.819480062E-1,7.384300232E-2,3.683313847E-1
2.207319216E0,-2.690170109E-1,-1.409399956E-1,5.170299858E-2,3.080705027E-1
2.212330240E0,-1.883230060E-1,-1.303790063E-1,-7.703000214E-3,2.291802262E-1
2.217340781E0,-1.146190017E-1,-1.114910021E-1,-3.773299977E-2,1.642910174E-1
2.222351765E0,-2.878800035E-2,-5.846599862E-2,-7.622999698E-2,1.002897522E-1
2.227362536E0,2.036299929E-2,-1.633200049E-2,-1.256850064E-1,1.283670784E-1
2.232373384E0,3.910600021E-2,5.644000135E-3,-1.932480037E-1,1.972458490E-1
2.237384384E0,5.393699929E-2,-8.709999733E-3,-2.745989859E-1,2.799815477E-1
2.242395160E0,5.534400046E-2,5.667000078E-3,-3.055230081E-1,3.105469075E-1
2.247405930E0,7.142800093E-2,5.086199939E-2,-3.193649948E-1,3.311840911E-1
2.252416774E0,1.132040024E-1,8.189000189E-2,-3.167420030E-1,3.461886986E-1
2.257427545E0,1.751549989E-1,1.366959959E-1,-3.046829998E-1,3.770899088E-1
2.262438543E0,2.704319954E-1,1.890950054E-1,-2.763719857E-1,4.304321778E-1
2.267449314E0,3.398160040E-1,2.230069935E-1,-2.251099944E-1,4.646305472E-1
2.272460169E0,3.422920108E-1,2.039680034E-1,-1.421789974E-1,4.230622110E-1
2.277470940E0,2.959229946E-1,1.658550054E-1,-6.115800142E-2,3.447007437E-1
2.282481938E0,2.300049961E-1,9.480199963E-2,2.242000028E-2,2.497846548E-1
2.287492699E0,1.309860051E-1,3.596099839E-2,1.066149995E-1,1.726768225E-1
2.292503543E0,6.517999806E-3,-2.679499984E-2,2.292650044E-1,2.309175147E-1
2.297514314E0,-1.240409985E-1,-9.873600304E-2,3.310480118E-1,3.670527942E-1
2.302525292E0,-2.375759929E-1,-1.543119997E-1,4.244759977E-1,5.103277557E-1
2.307536064E0,-3.068670034E-1,-2.233060002E-1,4.551709890E-1,5.926327335E-1
2.312546918E0,-3.494310081E-1,-3.152979910E-1,4.756369889E-1,6.691378018E-1
2.317557918E0,-3.962700069E-1,-3.904129863E-1,4.746449888E-1,7.312592451E-1
2.322568689E0,-4.263589978E-1,-4.632639885E-1,4.618799984E-1,7.808512349E-1
2.327579457E0,-4.220049977E-1,-4.917210042E-1,4.641689956E-1,7.970762954E-1
2.332590301E0,-3.959009945E-1,-4.722090065E-1,4.560559988E-1,7.666198650E-1
2.337601073E0,-3.484860063E-1,-4.276959896E-1,3.860070109E-1,6.733259007E-1
2.342612071E0,-2.732079923E-1,-3.876169920E-1,2.568649948E-1,5.393228765E-1
2.347622842E0,-1.291739941E-1,-3.379029930E-1,1.186380014E-1,3.807089817E-1
2.352633662E0,2.814199962E-2,-2.530559897E-1,-3.763100132E-2,2.573818143E-1
2.357644662E0,1.773349941E-1,-1.370940059E-1,-1.335809976E-1,2.609336113E-1
2.362655429E0,2.910929918E-1,-1.399299968E-2,-2.405969948E-1,3.779124870E-1
2.367666199E0,3.892939985E-1,1.266330034E-1,-3.017359972E-1,5.085571225E-1
2.372677062E0,4.565710127E-1,2.564609945E-1,-3.696160018E-1,6.409721680E-1
2.377687833E0,4.731200039E-1,3.661609888E-1,-4.751270115E-1,7.639778040E-1
2.382698602E0,4.871920049E-1,4.640089869E-1,-5.473089814E-1,8.672989743E-1
2.387709614E0,5.037040114E-1,5.037410259E-1,-5.994830132E-1,9.310492121E-1
2.392720462E0,5.138440132E-1,5.244640112E-1,-6.465740204E-1,9.783435658E-1
2.397731232E0,4.879339933E-1,5.080540180E-1,-6.964120269E-1,9.905494325E-1
2.402742225E0,4.343689978E-1,4.526630044E-1,-7.756140232E-1,9.975757289E-1
2.407752996E0,3.423100114E-1,3.601860106E-1,-8.019970059E-1,9.434560423E-1
2.412763840E0,2.035560012E-1,2.629919946E-1,-7.717509866E-1,8.403567220E-1
2.417774611E0,7.508800179E-2,1.549790055E-1,-6.884229779E-1,7.096357493E-1
2.422785391E0,-1.113899983E-2,3.559299931E-2,-6.260349751E-1,6.271449026E-1
2.427796389E0,-7.355599850E-2,-6.648500264E-2,-5.226920247E-1,5.320128694E-1
2.432807160E0,-1.023790017E-1,-1.247870028E-1,-3.239290118E-1,3.619160963E-1
2.437818013E0,-1.268440038E-1,-1.381880045E-1,-1.148030013E-1,2.199205652E-1
2.442828784E0,-1.145429984E-1,-1.648350060E-1,8.361800015E-2,2.174457349E-1
2.447839782E0,-1.059760004E-1,-1.933439970E-1,2.695389986E-1,3.482299321E-1
2.452850549E0,-9.829500318E-2,-2.437119931E-1,4.031910002E-1,4.812695979E-1
2.457861393E0,-9.162399918E-2,-2.362409979E-1,5.195850134E-1,5.780772893E-1
2.462872140E0,-7.420899719E-2,-1.866469979E-1,6.127420068E-1,6.448231106E-1
2.467883138E0,-6.463599950E-2,-1.625729948E-1,6.450570226E-1,6.683609455E-1
2.472893909E0,-1.837800071E-2,-1.380600035E-1,6.645110250E-1,6.789500849E-1
2.477904763E0,5.009900033E-2,-1.327030063E-1,6.260070205E-1,6.418759907E-1
2.482915535E0,8.018899709E-2,-1.449480057E-1,4.923140109E-1,5.194355445E-1
2.487926547E0,2.440599911E-2,-1.702550054E-1,2.881050110E-1,3.355397398E-1
2.492937318E0,-9.625700116E-2,-1.895630062E-1,5.209900066E-2,2.188923239E-1
2.497948183E0,-2.198839933E-1,-1.878799945E-1,-1.397539973E-1,3.212149477E-1
2.502958954E0,-3.025529981E-1,-1.876560003E-1,-2.555699944E-1,4.382569031E-1
2.507969937E0,-3.365040123E-1,-1.624069959E-1,-3.341259956E-1,5.012496021E-1
2.512980709E0,-3.323740065E-1,-1.270300001E-1,-4.469290078E-1,5.712745742E-1
2.517991553E0,-3.081969917E-1,-1.015760005E-1,-4.759309888E-1,5.760324432E-1
2.523002553E0,-2.252929956E-1,-8.987899870E-2,-4.583050013E-1,5.185350928E-1
2.528013324E0,-1.017249972E-1,-5.853699893E-2,-4.181819856E-1,4.343394161E-1
2.533024108E0,-3.513999982E-3,-3.257500008E-2,-3.134729862E-1,3.151805703E-1
2.538034877E0,8.693300188E-2,-1.660599932E-2,-2.063809931E-1,2.245578330E-1
2.543045722E0,1.493600011E-1,5.712000187E-3,-1.249900013E-1,1.948423396E-1
2.548056750E0,2.196580023E-1,2.949300036E-2,-4.287499934E-2,2.257382125E-1
2.553067521E0,2.511290014E-1,4.302100092E-2,5.193699896E-2,2.600269865E-1
2.558078356E0,2.683489919E-1,3.894799948E-2,1.214549989E-1,2.971185704E-1
2.563089127E0,2.716529965E-1,3.145400062E-2,1.946209967E-1,3.356516603E-1
2.568100120E0,2.268960029E-1,-8.562999777E-3,2.003539950E-1,3.028148682E-1
2.573110892E0,1.213949993E-1,-5.444400012E-2,2.200350016E-1,2.571308946E-1
2.578121726E0,-3.389300033E-2,-1.068330035E-1,1.899109930E-1,2.205180522E-1
2.583132497E0,-1.751189977E-1,-1.891019940E-1,1.715520024E-1,3.096067135E-1
2.588143252E0,-2.475479990E-1,-2.301020026E-1,1.769759953E-1,3.815068104E-1
2.593154250E0,-2.720910013E-1,-2.211380005E-1,2.018329948E-1,4.045640691E-1
2.598165083E0,-2.176209986E-1,-2.010699958E-1,2.294089943E-1,3.747219355E-1
2.603175776E0,-1.467429996E-1,-1.748729944E-1,2.597790062E-1,3.458311787E-1
2.608186620E0,-5.510099977E-2,-1.695140004E-1,2.288179994E-1,2.900496395E-1
2.613197620E0,2.193699963E-2,-1.656720042E-1,2.034669966E-1,2.633007095E-1
2.618208391E0,5.971900001E-2,-1.803299934E-1,1.244459972E-1,2.270948517E-1
2.623219226E0,3.643000126E-2,-2.107660025E-1,1.342200022E-2,2.143119290E-1
2.628229998E0,-2.956599928E-2,-2.376679927E-1,-1.102909967E-1,2.636746613E-1
2.633240996E0,-1.163759977E-1,-2.581920028E-1,-2.159110010E-1,3.561236351E-1
2.638251767E0,-1.841540039E-1,-2.648150027E-1,-2.823710144E-1,4.286876165E-1
2.643262625E0,-1.758950055E-1,-2.477719933E-1,-3.032340109E-1,4.292794882E-1
2.648273625E0,-1.034229994E-1,-2.121829987E-1,-3.049829900E-1,3.856586132E-1
2.653284165E0,-1.077000052E-3,-1.633830070E-1,-3.136270046E-1,3.536340834E-1
2.658295158E0,9.797500074E-2,-1.273960024E-1,-3.197869956E-1,3.579002162E-1
2.663306007E0,1.940079927E-1,-1.022590026E-1,-3.660869896E-1,4.267501480E-1
2.668316786E0,2.406570017E-1,-7.787299901E-2,-3.904730082E-1,4.652409769E-1
2.673327555E0,2.416159958E-1,-2.961100079E-2,-3.645890057E-1,4.383836720E-1
2.678338537E0,2.286140025E-1,6.199999916E-5,-3.223530054E-1,3.951908730E-1
2.683349308E0,1.884180009E-1,-4.699999990E-4,-2.997559905E-1,3.540553881E-1
2.688360167E0,1.452369988E-1,-2.594700083E-2,-2.828170061E-1,3.189866637E-1
2.693371168E0,9.216400236E-2,-5.691299960E-2,-2.574160099E-1,2.792781678E-1
2.698381939E0,5.277200043E-2,-1.096199974E-1,-2.288630009E-1,2.591904725E-1
2.703392783E0,1.499699987E-2,-1.553519964E-1,-1.876090020E-1,2.440415752E-1
2.708403525E0,-1.000699960E-2,-1.937659979E-1,-1.077980027E-1,2.219590308E-1
2.713414294E0,-1.102100033E-2,-2.132689953E-1,-1.794699952E-2,2.143063732E-1
2.718425369E0,-5.094999913E-3,-2.212619931E-1,8.926899731E-2,2.386457259E-1
2.723436126E0,-4.213000182E-3,-2.136150002E-1,1.976979971E-1,2.910903910E-1
2.728446895E0,-1.933700033E-2,-2.438209951E-1,2.149830014E-1,3.256382780E-1
2.733457674E0,-3.376200050E-2,-2.627409995E-1,1.803909987E-1,3.204896533E-1
2.738468443E0,-5.009499937E-2,-2.689920068E-1,9.956000000E-2,2.911673098E-1
2.743479441E0,-7.290600240E-2,-2.656010091E-1,-1.494800020E-2,2.758307886E-1
2.748490189E0,-8.612199873E-2,-2.406619936E-1,-1.034059972E-1,2.757317430E-1
2.753501033E0,-7.877700031E-2,-1.689780056E-1,-2.104859948E-1,2.811827452E-1
2.758512033E0,-3.315500170E-2,-9.764499962E-2,-2.701439857E-1,2.891566584E-1
2.763522886E0,4.245200008E-2,-2.666000044E-3,-3.065930009E-1,3.095295593E-1
2.768533655E0,1.311549991E-1,8.146800101E-2,-2.804110050E-1,3.201077955E-1
2.773544438E0,2.073310018E-1,1.586209983E-1,-1.927559972E-1,3.245021415E-1
2.778555208E0,2.742350101E-1,2.221899927E-1,-9.182199836E-2,3.646978380E-1
2.783566206E0,3.070800006E-1,2.468779981E-1,2.178199962E-2,3.946154182E-1
2.788576982E0,3.141410053E-1,2.429690063E-1,1.500190049E-1,4.245282218E-1
2.793587826E0,2.803919911E-1,2.055609971E-1,2.287150025E-1,4.161556735E-1
2.798598587E0,2.351900041E-1,1.229929999E-1,2.816390097E-1,3.869911470E-1
2.803609585E0,1.416739970E-1,2.353700064E-2,2.807399929E-1,3.153418073E-1
2.808620357E0,3.127700090E-2,-5.467199907E-2,2.932220101E-1,2.999106959E-1
2.813631216E0,-6.094500050E-2,-7.985799760E-2,2.678180039E-1,2.860385919E-1
2.818641987E0,-1.215690002E-1,-7.990899682E-2,1.722480059E-1,2.254636226E-1
2.823652980E0,-1.445730031E-1,-1.108260006E-1,-1.439199969E-2,1.827317303E-1
2.828663751E0,-1.548489928E-1,-1.220270023E-1,-1.490080059E-1,2.471278731E-1
2.833674595E0,-1.575579941E-1,-1.009510010E-1,-3.616960049E-1,4.072341170E-1
2.838685367E0,-1.921620071E-1,-2.089049965E-1,-6.319169998E-1,6.927384999E-1
2.843696136E0,-6.706299633E-2,-1.144820005E-1,-7.422339916E-1,7.539992521E-1
2.848707134E0,-5.587200075E-2,-2.484999970E-2,-8.291519880E-1,8.314037661E-1
2.853717977E0,-1.147629991E-1,3.563600034E-2,-6.858180165E-1,6.962663444E-1
2.858728746E0,-7.182800025E-2,1.063759997E-1,-5.724869967E-1,5.866996474E-1
2.863739744E0,-8.685999550E-3,1.775639951E-1,-4.650830030E-1,4.979022180E-1
2.868750516E0,3.240700066E-2,2.502799928E-1,-2.806549966E-1,3.774354456E-1
2.873761285E0,8.970600367E-2,3.219699860E-1,-9.324400127E-2,3.469960846E-1
2.878772129E0,1.310389936E-1,3.332459927E-1,6.113199890E-2,3.632646842E-1
2.883782900E0,1.176970005E-1,3.483499885E-1,1.927749962E-1,4.151656266E-1
2.888793898E0,8.399599791E-2,3.066239953E-1,3.626660109E-1,4.822864684E-1
2.893804664E0,3.573099896E-2,2.601459920E-1,4.901530147E-1,5.560599062E-1
2.898815509E0,-7.726999931E-3,1.847250015E-1,5.659499764E-1,5.953842528E-1
2.903826271E0,-8.109299839E-2,8.987700194E-2,6.047000289E-1,6.166977175E-1
2.908837269E0,-1.765709966E-1,1.584099978E-2,6.236789823E-1,6.483854772E-1
2.913848117E0,-2.587969899E-1,-5.663999915E-2,6.420440078E-1,6.945534388E-1
2.918859139E0,-3.142780066E-1,-9.986399859E-2,6.294329762E-1,7.105838129E-1
2.923869910E0,-3.535569906E-1,-1.422020048E-1,6.595439911E-1,7.617231990E-1
2.928880684E0,-3.331469893E-1,-1.610070020E-1,6.589379907E-1,7.557178354E-1
2.933891453E0,-3.015690148E-1,-1.527349949E-1,6.189789772E-1,7.052707449E-1
2.938902222E0,-2.497999966E-1,-1.587409973E-1,5.305529833E-1,6.075238354E-1
2.943913057E0,-1.994290054E-1,-1.769569963E-1,4.082649946E-1,4.876125640E-1
2.948923828E0,-1.667390019E-1,-1.999740005E-1,2.878879905E-1,3.881636133E-1
2.953934850E0,-1.420550048E-1,-2.248159945E-1,2.024289966E-1,3.342145335E-1
2.958945699E0,-1.413809955E-1,-2.329570055E-1,8.556800336E-2,2.856211398E-1
2.963956468E0,-1.179990023E-1,-2.292069942E-1,-1.505499985E-2,2.582368366E-1
2.968967222E0,-1.166250035E-1,-2.417169958E-1,-1.117350012E-1,2.907115547E-1
2.973978220E0,-1.111119986E-1,-2.772580087E-1,-2.072509974E-1,3.635530987E-1
2.978988977E0,-1.064509973E-1,-3.186030090E-1,-2.829160094E-1,4.391823773E-1
2.983999822E0,-9.590099752E-2,-3.087339997E-1,-3.336699903E-1,4.645958957E-1
2.989010593E0,-7.991600037E-2,-2.431599945E-1,-3.473879993E-1,4.314994462E-1
2.994021591E0,-6.773699820E-2,-1.670020074E-1,-3.362540007E-1,3.815032429E-1
2.999032362E0,-5.884899944E-2,-7.549999654E-2,-3.192729950E-1,3.333147155E-1
3.004043206E0,-1.324099954E-2,-2.019999921E-2,-2.879649997E-1,2.889761324E-1
3.009053977E0,7.514099777E-2,2.342900075E-2,-2.263469994E-1,2.396415068E-1
3.014064975E0,1.637639999E-1,3.510899842E-2,-1.330199987E-1,2.138822328E-1
3.019075742E0,1.909479946E-1,4.732999951E-3,-1.409019977E-1,2.373539780E-1
3.024086586E0,1.658210009E-1,-4.824800044E-2,-1.780779958E-1,2.480650045E-1
3.029097357E0,1.175799966E-1,-1.071410030E-1,-2.372249961E-1,2.856220385E-1
3.034108360E0,6.751800328E-2,-1.457960010E-1,-2.943190038E-1,3.353189984E-1
3.039119208E0,4.306700081E-2,-1.500650048E-1,-3.303000033E-1,3.653386982E-1
3.044129991E0,3.832099959E-2,-1.524659991E-1,-3.008170128E-1,3.394189963E-1
3.049140761E0,1.315299980E-2,-1.500689983E-1,-2.373410016E-1,2.811128896E-1
3.054151759E0,5.173000041E-3,-1.426869929E-1,-1.425729990E-1,2.017756128E-1
3.059162530E0,1.116999984E-2,-1.161570027E-1,-1.651299931E-2,1.178554086E-1
3.064173374E0,1.442900021E-2,-8.971299976E-2,1.265749931E-1,1.558135015E-1
3.069184145E0,4.059199989E-2,-7.826100290E-2,2.463659942E-1,2.616652406E-1
3.074195133E0,7.520599663E-2,-7.496199757E-2,3.622890115E-1,3.775295629E-1
3.079205905E0,9.007800370E-2,-6.405200064E-2,4.418340027E-1,4.554492195E-1
3.084216674E0,7.204999775E-2,-8.878500015E-2,4.830319881E-1,4.963807813E-1
3.089227443E0,2.230799943E-2,-1.424140036E-1,4.625909925E-1,4.845305166E-1
3.094238287E0,-4.432199895E-2,-1.805260032E-1,3.863170147E-1,4.287130897E-1
3.099249040E0,-1.020990014E-1,-2.058569938E-1,3.142049909E-1,3.892635152E-1
3.104260038E0,-1.654109955E-1,-2.096700072E-1,2.158599943E-1,3.433916809E-1
3.109270809E0,-1.899529994E-1,-2.002999932E-1,6.331700087E-2,2.832159456E-1
3.114281653E0,-1.863110065E-1,-1.855819970E-1,-1.215419993E-1,2.896979917E-1
3.119292653E0,-1.509020030E-1,-1.656319946E-1,-3.101670146E-1,3.826342236E-1
3.124303424E0,-8.257199824E-2,-1.331969947E-1,-4.837430120E-1,5.084947157E-1
3.129314193E0,-3.602999961E-3,-7.336100191E-2,-6.117990017E-1,6.161922076E-1
3.134324968E0,5.772599950E-2,1.947299950E-2,-6.805629730E-1,6.832843105E-1
3.139335812E0,1.181849986E-1,1.087580025E-1,-6.700040102E-1,6.889857551E-1
3.144346826E0,1.340010017E-1,1.865070015E-1,-6.002799869E-1,6.427108158E-1
3.149357597E0,1.120349988E-1,1.378850043E-1,-5.353050232E-1,5.640173607E-1
3.154368441E0,1.342000067E-1,2.419299930E-1,-5.012519956E-1,5.725323802E-1
3.159379441E0,1.386239976E-1,2.816179991E-1,-4.963020086E-1,5.872316356E-1
3.164389982E0,1.764159948E-1,2.866120040E-1,-3.252159953E-1,4.680112046E-1
3.169400970E0,1.265279949E-1,2.749269903E-1,-9.848000109E-2,3.182648175E-1
3.174411818E0,2.017699927E-2,2.477490008E-1,4.195199907E-2,2.520846067E-1
3.179422587E0,-3.184999898E-2,2.256589979E-1,1.539950073E-1,2.750470288E-1
3.184433600E0,-6.365600228E-2,1.479489952E-1,3.175050020E-1,3.560202496E-1
3.189444371E0,-8.261399716E-2,6.222699955E-2,4.800289869E-1,4.910449066E-1
3.194455145E0,-6.314200163E-2,-4.643000197E-3,5.617390275E-1,5.652956791E-1
3.199465989E0,2.156299911E-2,-7.994200289E-2,5.965920091E-1,6.023103121E-1
3.204476760E0,1.323020011E-1,-1.118049994E-1,6.377459764E-1,6.608510482E-1
3.209487744E0,2.406129986E-1,-9.444800019E-2,6.482319832E-1,6.978679989E-1
3.214498515E0,3.234449923E-1,-2.602100000E-2,6.789709926E-1,7.525259891E-1
3.219509360E0,3.376829922E-1,3.050700016E-2,6.354169846E-1,7.202188727E-1
3.224520131E0,3.086149991E-1,5.336200073E-2,5.252289772E-1,6.115195821E-1
3.229531129E0,2.651180029E-1,5.899000168E-2,3.821969926E-1,4.688730286E-1
3.234541905E0,2.026509941E-1,6.085300073E-2,1.808380038E-1,2.783395349E-1
3.239552749E0,1.353310049E-1,7.086999714E-2,-1.663500071E-2,1.536676954E-1
3.244563500E0,5.381700024E-2,7.511699945E-2,-2.081529945E-1,2.277421837E-1
3.249574270E0,-4.371500015E-2,6.206500158E-2,-4.035240114E-1,4.106028415E-1
3.254585268E0,-1.431940049E-1,4.458599910E-2,-5.557259917E-1,5.756073421E-1
3.259596044E0,-2.169450074E-1,1.864000037E-2,-6.799790263E-1,7.139916401E-1
3.264606813E0,-2.523030043E-1,1.645999961E-3,-7.509089708E-1,7.921639968E-1
3.269617657E0,-2.528359890E-1,-2.027300000E-2,-7.979210019E-1,8.372663597E-1
3.274628429E0,-2.080170065E-1,-5.366500095E-2,-8.171290159E-1,8.448969381E-1
3.279639427E0,-1.217359975E-1,-6.938699633E-2,-7.901309729E-1,8.024594461E-1
3.284650209E0,-3.695499897E-2,-6.008100137E-2,-7.314509749E-1,7.348441518E-1
3.289661053E0,3.042499907E-2,-5.660900101E-2,-6.722509861E-1,6.753159615E-1
3.294671848E0,1.113059968E-1,-2.799100056E-2,-6.005020142E-1,6.113715646E-1
3.299682846E0,1.732929945E-1,-2.872700058E-2,-5.380020142E-1,5.659521797E-1
3.304693627E0,1.847320050E-1,-4.150199890E-2,-4.681319892E-1,5.049711763E-1
3.309704471E0,1.519590020E-1,-4.668100178E-2,-3.718839884E-1,4.044358479E-1
3.314715228E0,1.017960012E-1,-8.268999867E-3,-2.277240008E-1,2.495776888E-1
3.319726226E0,4.658000171E-2,3.993399814E-2,-8.554700017E-2,1.052744509E-1
3.324736997E0,3.769800067E-2,6.182700023E-2,4.738600180E-2,8.653987739E-2
3.329747831E0,8.994500339E-2,5.978399888E-2,1.754660010E-1,2.060401603E-1
3.334758603E0,1.694210023E-1,7.532000076E-3,2.698589861E-1,3.187225744E-1
3.339769367E0,2.314199954E-1,-7.546500117E-2,3.591639996E-1,4.338766637E-1
3.344780365E0,2.488840073E-1,-1.839900017E-1,4.361810088E-1,5.348359022E-1
3.349791189E0,1.908970028E-1,-2.948220074E-1,4.518780112E-1,5.723245747E-1
3.354801958E0,1.034960002E-1,-3.754960001E-1,4.408519864E-1,5.882679169E-1
3.359812971E0,-1.213000040E-3,-4.482049942E-1,4.037509859E-1,6.032445995E-1
3.364823742E0,-5.349899828E-2,-4.600220025E-1,3.229269981E-1,5.645920932E-1
3.369834587E0,-1.201350018E-1,-4.496200085E-1,2.514120042E-1,5.289598913E-1
3.374845358E0,-2.151169926E-1,-4.812490046E-1,1.745889932E-1,5.552992360E-1
3.379856127E0,-2.445400059E-1,-5.041109920E-1,7.588000037E-3,5.603438984E-1
3.384867125E0,-2.525320053E-1,-4.890559912E-1,-2.217549980E-1,5.933999118E-1
3.389877905E0,-2.776930034E-1,-4.574609995E-1,-4.275240004E-1,6.849530941E-1
3.394888750E0,-2.945429981E-1,-3.896819949E-1,-5.696769953E-1,7.504262214E-1
3.399899521E0,-2.900179923E-1,-2.924180031E-1,-6.537050009E-1,7.726247165E-1
3.404910534E0,-2.417220026E-1,-1.701280028E-1,-6.993759871E-1,7.592758623E-1
3.409921305E0,-1.578170061E-1,-5.472699925E-2,-6.772220135E-1,6.975176753E-1
3.414932149E0,-6.221299991E-2,4.562300071E-2,-6.076570153E-1,6.125348674E-1
3.419942905E0,2.465100028E-2,9.185700119E-2,-5.158309937E-1,5.245254946E-1
3.424953675E0,1.199389994E-1,1.232530028E-1,-4.001710117E-1,4.355611379E-1
3.429964673E0,1.936140060E-1,1.409289986E-1,-2.542920113E-1,3.493018651E-1
3.434975444E0,2.259439975E-1,1.557489932E-1,-4.549999908E-2,2.781702515E-1
3.439986288E0,2.534979880E-1,2.175710052E-1,1.932049990E-1,3.859100204E-1
3.444997059E0,2.493290007E-1,2.286099941E-1,4.068740010E-1,5.291256303E-1
3.450007844E0,2.657870054E-1,2.622199953E-1,6.201300025E-1,7.238530777E-1
3.455018842E0,3.350580037E-1,3.291639984E-1,8.242449760E-1,9.486793896E-1
3.460029589E0,3.422310054E-1,3.551410139E-1,9.863290191E-1,1.102765675E0
3.465040433E0,2.989850044E-1,3.222669959E-1,1.002562046E0,1.094704849E0
3.470051204E0,1.930499971E-1,2.250149995E-1,8.860030174E-1,9.342919235E-1
3.475062211E0,4.450299963E-2,9.868700057E-2,6.852350235E-1,6.937338672E-1
3.480072983E0,-1.157829985E-1,-1.489100046E-2,4.276730120E-1,4.433189031E-1
3.485083827E0,-2.486360073E-1,-1.351490021E-1,1.635479927E-1,3.268532741E-1
3.490094593E0,-3.275069892E-1,-2.089579999E-1,-1.513160020E-1,4.169182248E-1
3.495105591E0,-4.102280140E-1,-2.727620006E-1,-4.853740036E-1,6.915736084E-1
3.500116362E0,-4.393770099E-1,-3.617529869E-1,-7.894889712E-1,9.732472533E-1
3.505127197E0,-4.270519912E-1,-3.939020038E-1,-9.834539890E-1,1.142240754E0
3.510137969E0,-4.035930037E-1,-3.554239869E-1,-1.134130955E0,1.255175902E0
3.515148942E0,-3.174790144E-1,-2.646769881E-1,-1.168889046E0,1.239817903E0
3.520159790E0,-2.017450035E-1,-1.459439993E-1,-1.051790953E0,1.080863037E0
3.525170559E0,-8.504900336E-2,-1.896299981E-2,-8.228030205E-1,8.274042173E-1
3.530181343E0,3.588199988E-2,7.908400148E-2,-5.521500111E-1,5.589377711E-1
3.535192341E0,1.527339965E-1,1.480139941E-1,-3.015829921E-1,3.690367424E-1
3.540203098E0,2.433470041E-1,1.740120053E-1,-6.398700178E-2,3.059285518E-1
3.545213867E0,3.324109912E-1,1.827560067E-1,1.303209960E-1,4.010989742E-1
3.550224702E0,3.673410118E-1,1.860570014E-1,2.916499972E-1,5.045952314E-1
3.555235702E0,3.408930004E-1,1.586049944E-1,4.794270098E-1,6.092732061E-1
3.560246473E0,3.462629914E-1,1.230650023E-1,5.799239874E-1,6.865529005E-1
3.565257266E0,3.602499962E-1,4.060000181E-2,5.722680092E-1,6.774356753E-1
3.570268111E0,3.549869955E-1,-3.719799966E-2,4.815239906E-1,5.993870300E-1
3.575278882E0,3.101179898E-1,-1.154640019E-1,3.465299904E-1,4.791535637E-1
3.580289880E0,2.519080043E-1,-1.788939983E-1,2.860330045E-1,4.210410727E-1
3.585300651E0,1.782869995E-1,-2.303570062E-1,2.024089992E-1,3.547111606E-1
3.590311495E0,9.884700179E-2,-2.329159975E-1,7.295200229E-2,2.633298052E-1
3.595322267E0,3.672099859E-2,-2.204969972E-1,-6.862399727E-2,2.338303028E-1
3.600333246E0,2.122600004E-2,-1.932130009E-1,-1.890950054E-1,2.711802498E-1
3.605344017E0,3.671799973E-2,-1.604049951E-1,-2.889379859E-1,3.325103512E-1
3.610354861E0,9.600900114E-2,-1.357470006E-1,-3.523469865E-1,3.896066932E-1
3.615365646E0,1.927330047E-1,-9.251400083E-2,-3.632709980E-1,4.215099873E-1
3.620376415E0,2.931309938E-1,-5.681800097E-2,-3.674150109E-1,4.734425573E-1
3.625387190E0,3.484350145E-1,-4.193500057E-2,-3.295589983E-1,4.814297841E-1
3.630398188E0,3.623510003E-1,-5.396899953E-2,-2.551960051E-1,4.464704933E-1
3.635408944E0,3.316270113E-1,-8.370400220E-2,-2.106869966E-1,4.017111464E-1
3.640419788E0,2.506040037E-1,-1.123789996E-1,-1.953729987E-1,3.370489799E-1
3.645430559E0,1.576430053E-1,-1.470790058E-1,-1.614760011E-1,2.693660149E-1
3.650441562E0,8.077500015E-2,-1.734330058E-1,-1.067539975E-1,2.190890781E-1
3.655452334E0,4.259299859E-2,-1.891230047E-1,-3.380599990E-2,1.967854671E-1
3.660463193E0,2.644000109E-3,-1.945749968E-1,2.909299918E-2,1.967557438E-1
3.665473964E0,-2.497600019E-2,-1.786590070E-1,6.590200216E-2,1.920570625E-1
3.670484952E0,-2.875800058E-2,-1.539819986E-1,6.515000015E-2,1.696525891E-1
3.675495723E0,-1.143900026E-2,-1.231810004E-1,4.852300137E-2,1.328867610E-1
3.680506486E0,2.199600078E-2,-9.340599924E-2,1.116999984E-2,9.660886937E-2
3.685517331E0,4.806400090E-2,-8.054900169E-2,2.646999899E-3,9.383654120E-2
3.690528102E0,6.240300089E-2,-6.037800014E-2,8.407000452E-3,8.723711984E-2
3.695539115E0,5.849500000E-2,-4.258900136E-2,-1.999999949E-5,7.235667531E-2
3.700549886E0,7.150299847E-2,-1.982500032E-2,1.295099966E-2,7.532222660E-2
3.705560730E0,8.920700103E-2,3.220000071E-3,3.282599896E-2,9.510942982E-2
3.710571516E0,1.184279993E-1,1.643900014E-2,1.934500039E-2,1.211183751E-1
3.715582285E0,1.332180053E-1,1.533500012E-2,8.213999681E-3,1.343490564E-1
3.720593283E0,1.131530032E-1,-9.057000279E-3,1.585000008E-2,1.146161153E-1
3.725604044E0,6.370099634E-2,-6.115699932E-2,2.052200027E-2,9.065951685E-2
3.730614888E0,2.484400012E-2,-1.198209971E-1,1.287799980E-2,1.230452704E-1
3.735625898E0,-1.569500007E-2,-1.734029949E-1,-2.065999899E-3,1.741240937E-1
3.740636669E0,-6.730300188E-2,-2.125059962E-1,-7.366999984E-3,2.230308615E-1
3.745647528E0,-9.256699681E-2,-2.194830030E-1,-6.645300239E-2,2.473003013E-1
3.750658299E0,-1.179929972E-1,-2.130119950E-1,-8.406899869E-2,2.576122162E-1
3.755669068E0,-9.493499994E-2,-1.716939956E-1,-6.519699842E-2,2.067417010E-1
3.760679842E0,-4.332600161E-2,-1.152530015E-1,-5.972500145E-2,1.368483561E-1
3.765690840E0,1.054699998E-2,-5.791400000E-2,-4.622799903E-2,7.484850366E-2
3.770701689E0,6.918600202E-2,-1.171100046E-2,-4.615100101E-2,8.398669717E-2
3.775712472E0,1.119780019E-1,3.050399944E-2,-7.123800367E-2,1.361778986E-1
3.780723241E0,1.560640037E-1,6.622300297E-2,-1.236919984E-1,2.098598815E-1
3.785734239E0,1.505420059E-1,8.393699676E-2,-2.059630007E-1,2.685685622E-1
3.790744986E0,1.341300011E-1,1.034559980E-1,-2.635349929E-1,3.132805344E-1
3.795755830E0,1.046750024E-1,1.376570016E-1,-2.636930048E-1,3.153415720E-1
3.800766617E0,6.723900139E-2,1.731009930E-1,-2.167990059E-1,2.854590094E-1
3.805777615E0,4.534599930E-2,1.934559941E-1,-1.640049964E-1,2.576414566E-1
3.810788463E0,2.232000045E-2,1.946469992E-1,-7.963600010E-2,2.114888395E-1
3.815799227E0,5.187000148E-3,1.912570000E-1,2.888499945E-2,1.934954475E-1
3.820809996E0,-3.393400088E-2,1.572059989E-1,1.351750046E-1,2.100893248E-1
3.825820766E0,-6.882199645E-2,1.182740033E-1,2.205750048E-1,2.595737656E-1
3.830831764E0,-6.500999629E-2,9.766700119E-2,3.094039857E-1,3.309017515E-1
3.835842607E0,-3.305999935E-2,6.101800129E-2,3.520160019E-1,3.587916187E-1
3.840853376E0,-3.417799994E-2,2.894999925E-3,3.348459899E-1,3.365982081E-1
3.845864145E0,-6.061200052E-2,-3.027199954E-2,2.569139898E-1,2.656972087E-1
3.850875138E0,-1.097199991E-1,-3.899100050E-2,1.689780056E-1,2.052129205E-1
3.855885910E0,-1.814190000E-1,-1.861600019E-2,1.022929996E-1,2.091010923E-1
3.860896754E0,-2.684319913E-1,-2.267600037E-2,9.857600182E-2,2.868573916E-1
3.865907535E0,-3.515279889E-1,-3.694799915E-2,6.704600155E-2,3.597669356E-1
3.870918533E0,-4.354940057E-1,-6.346800178E-2,3.849000111E-2,4.417744859E-1
3.875929313E0,-4.716500044E-1,-8.972200006E-2,4.559599981E-2,4.822683476E-1
3.880940157E0,-4.568000138E-1,-1.036430001E-1,8.076199889E-2,4.753216012E-1
3.885950929E0,-4.084730148E-1,-9.803999960E-2,1.390250027E-1,4.424816344E-1
3.890961698E0,-3.158270121E-1,-8.750600368E-2,2.012140006E-1,3.845660883E-1
3.895972696E0,-1.656610072E-1,-6.322299689E-2,2.366649956E-1,2.957212146E-1
3.900983540E0,-2.412099950E-2,-5.417700112E-2,2.266550064E-1,2.342850016E-1
3.905994309E0,1.069729999E-1,-3.869400173E-2,2.166520059E-1,2.447009198E-1
3.911005078E0,2.444059998E-1,2.333999984E-2,2.167589962E-1,3.275110850E-1
3.916015857E0,3.579899967E-1,9.134799987E-2,2.223020047E-1,4.311838078E-1
3.921026855E0,3.976680040E-1,1.346209943E-1,2.047329992E-1,4.670955518E-1
3.926037703E0,3.889420033E-1,1.389990002E-1,1.498280019E-1,4.393689043E-1
3.931048410E0,3.216089904E-1,1.262370050E-1,7.208699733E-2,3.529371889E-1
3.936059485E0,2.530010045E-1,9.147699922E-2,-2.366499975E-2,2.700695871E-1
3.941070260E0,1.785099953E-1,5.108699948E-2,-1.585830003E-1,2.441808099E-1
3.946081030E0,9.809999913E-2,-1.598300040E-2,-2.996110022E-1,3.156672596E-1
3.951091870E0,3.037700057E-2,-1.204710007E-1,-4.120920002E-1,4.304135695E-1
3.956102870E0,-3.473800048E-2,-1.929820031E-1,-4.913310111E-1,5.290131800E-1
3.961113641E0,-1.116219983E-1,-2.619599998E-1,-5.543289781E-1,6.231878753E-1
3.966124381E0,-1.723479927E-1,-3.086720109E-1,-6.104279757E-1,7.054109117E-1
3.971135151E0,-2.203759998E-1,-3.116700053E-1,-6.095089912E-1,7.191696489E-1
3.976145990E0,-2.103700042E-1,-2.901749909E-1,-5.615940094E-1,6.662168531E-1
3.981156761E0,-1.629579961E-1,-2.543959916E-1,-5.023139715E-1,5.861671733E-1
3.986167759E0,-9.351799637E-2,-2.185039967E-1,-4.057439864E-1,4.702316394E-1
3.991178539E0,-5.820599943E-2,-1.831959933E-1,-3.427639902E-1,3.929832863E-1
3.996189383E0,-1.878299937E-2,-1.484239995E-1,-2.751449943E-1,3.131888449E-1
4.001200155E0,1.336000022E-2,-1.333930045E-1,-2.338110059E-1,2.695176613E-1
4.006210924E0,1.574599929E-2,-1.329420060E-1,-1.996649951E-1,2.403905649E-1
4.011221999E0,3.605999984E-3,-1.303140074E-1,-1.868779957E-1,2.278555004E-1
4.016232770E0,3.395000007E-3,-1.541849971E-1,-2.146070004E-1,2.642739184E-1
4.021243530E0,3.348400071E-2,-1.568569988E-1,-2.493570000E-1,2.964864412E-1
4.026254300E0,6.518100202E-2,-1.475359946E-1,-2.675360143E-1,3.123955052E-1
4.031265298E0,1.400630027E-1,-1.037300006E-1,-1.937779933E-1,2.606289862E-1
4.036276064E0,2.175219953E-1,-3.164000064E-2,-3.376799822E-2,2.223897160E-1
4.041286908E0,2.771880031E-1,3.526899964E-2,1.289550066E-1,3.077441878E-1
4.046297679E0,3.642320037E-1,9.864299744E-2,2.567569911E-1,4.564203610E-1
4.051308696E0,4.271189868E-1,1.203790009E-1,3.568710089E-1,5.694546951E-1
4.056319467E0,4.624310136E-1,9.444600344E-2,3.254559934E-1,5.733097710E-1
4.061330232E0,3.851709962E-1,-9.630000219E-3,2.248190045E-1,4.460863347E-1
4.066341076E0,2.495290041E-1,-1.510660052E-1,8.146999776E-2,3.028580895E-1
4.071351847E0,7.742000371E-2,-2.705189884E-1,-6.817600131E-2,2.895208925E-1
4.076362836E0,-1.052530035E-1,-3.492789865E-1,-1.998549998E-1,4.159519516E-1
4.081373607E0,-2.783139944E-1,-3.824949861E-1,-2.564429939E-1,5.380744400E-1
4.086384437E0,-3.964639902E-1,-3.593429923E-1,-2.947950065E-1,6.109133961E-1
4.091395208E0,-4.688470066E-1,-3.113949895E-1,-3.100790083E-1,6.425989001E-1
4.096406206E0,-4.786759913E-1,-2.625589967E-1,-2.980149984E-1,6.219974845E-1
4.101416983E0,-4.372079968E-1,-1.918790042E-1,-2.799679935E-1,5.534893514E-1
4.106427827E0,-3.783290088E-1,-1.325989962E-1,-2.538830042E-1,4.745228261E-1
4.111438574E0,-2.904160023E-1,-8.396100253E-2,-2.014070004E-1,3.632570497E-1
4.116449344E0,-1.922349930E-1,-3.892600164E-2,-1.678020060E-1,2.581221404E-1
4.121460342E0,-9.954400361E-2,-7.433999795E-3,-1.979719996E-1,2.217141981E-1
4.126471195E0,-9.592999704E-3,1.839699969E-2,-2.183170021E-1,2.193006809E-1
4.131481964E0,6.400799751E-2,3.992100060E-2,-1.940460056E-1,2.081935694E-1
4.136492733E0,1.383070052E-1,6.213999912E-2,-1.707649976E-1,2.283656970E-1
4.141503483E0,2.181210071E-1,1.189540029E-1,-1.081599966E-1,2.709712409E-1
4.146514481E0,2.827619910E-1,1.869769990E-1,-4.174000118E-3,3.390164657E-1
4.151525252E0,3.050599992E-1,2.381799966E-1,1.145410016E-1,4.036222925E-1
4.156536091E0,3.026840091E-1,2.558540106E-1,2.170159966E-1,4.518570868E-1
4.161546862E0,2.949700058E-1,2.377600074E-1,3.031449914E-1,4.852154276E-1
4.166557631E0,2.612009943E-1,1.644199938E-1,3.303329945E-1,4.520838207E-1
4.171568620E0,1.949059963E-1,5.737600103E-2,3.394030035E-1,3.955688962E-1
4.176579392E0,8.749099821E-2,-8.365999907E-2,2.949320078E-1,3.188080291E-1
4.181590255E0,-7.648900151E-2,-2.445739955E-1,2.261400074E-1,3.417693806E-1
4.186601255E0,-2.426919937E-1,-3.572520018E-1,1.508579999E-1,4.574784505E-1
4.191612026E0,-3.955569863E-1,-3.927409947E-1,3.497799858E-2,5.585107687E-1
4.196622795E0,-5.156430006E-1,-3.452599943E-1,-4.644599929E-2,6.222936594E-1
4.201633640E0,-5.672600269E-1,-2.960940003E-1,-9.642100334E-2,6.471109681E-1
4.206644411E0,-5.248330235E-1,-2.032160014E-1,-1.409769952E-1,5.801904506E-1
4.211655409E0,-4.280290008E-1,-1.165800020E-1,-1.735240072E-1,4.763510296E-1
4.216666180E0,-2.917909920E-1,-2.060499974E-2,-2.912099957E-1,4.127587802E-1
4.221677038E0,-1.866780072E-1,2.994900011E-2,-3.191710114E-1,3.709659763E-1
4.226687809E0,-8.741600066E-2,2.628299966E-2,-3.989999890E-1,4.093083733E-1
4.231698579E0,4.168000072E-3,1.004299987E-2,-4.764310122E-1,4.765550791E-1
4.236709348E0,4.416099936E-2,2.153800055E-2,-4.333829880E-1,4.361592526E-1
4.241720342E0,1.065779999E-1,5.890899897E-2,-3.469789922E-1,3.677275639E-1
4.246731113E0,1.562789977E-1,8.673699945E-2,-2.558059990E-1,3.120627202E-1
4.251741957E0,3.001689911E-1,1.504369974E-1,-9.587000310E-2,3.491758452E-1
4.256752719E0,4.639399946E-1,2.714380026E-1,1.305290014E-1,5.531335535E-1
4.261763717E0,6.110339761E-1,3.674120009E-1,2.715469897E-1,7.629494518E-1
4.266774497E0,6.705210209E-1,4.073849916E-1,3.516420126E-1,8.597750147E-1
4.271785341E0,6.660289764E-1,3.591789901E-1,4.249970019E-1,8.678862806E-1
4.276796112E0,5.878000259E-1,2.444320023E-1,4.368799925E-1,7.720880792E-1
4.281807125E0,4.101299942E-1,4.434400052E-2,3.755570054E-1,5.578674276E-1
4.286817897E0,1.752769947E-1,-2.169249952E-1,2.435030043E-1,3.702326181E-1
4.291828750E0,-7.597099990E-2,-4.895310104E-1,7.705099881E-2,5.013472443E-1
4.296839521E0,-3.206700087E-1,-7.008119822E-1,-1.177010015E-1,7.796282541E-1
4.301850305E0,-5.278279781E-1,-8.516690135E-1,-2.685329914E-1,1.037329480E0
4.306861303E0,-6.628630161E-1,-9.170569777E-1,-3.629710078E-1,1.188330270E0
4.311872074E0,-7.014629841E-1,-8.818929791E-1,-4.027540088E-1,1.196660493E0
4.316882914E0,-6.473919749E-1,-7.598860264E-1,-4.158259928E-1,1.081413149E0
4.321893914E0,-4.965910017E-1,-6.042889953E-1,-3.951880038E-1,8.763226410E-1
4.326904685E0,-2.886950076E-1,-4.420030117E-1,-3.957079947E-1,6.597698741E-1
4.331915459E0,-5.025799945E-2,-2.917779982E-1,-3.938939869E-1,4.927603268E-1
4.336926303E0,1.515270025E-1,-1.650460064E-1,-4.256339967E-1,4.810040705E-1
4.341937065E0,2.864660025E-1,-9.212700278E-2,-5.172250271E-1,5.983910794E-1
4.346947834E0,3.734470010E-1,-4.756699875E-2,-5.954020023E-1,7.044351115E-1
4.351958832E0,4.027740061E-1,-1.318799984E-2,-6.514229774E-1,7.659978583E-1
4.356969690E0,4.136779904E-1,4.984000232E-3,-6.909589767E-1,8.053437946E-1
4.361980459E0,3.975479901E-1,2.990400046E-2,-6.696929932E-1,7.793762626E-1
4.366991232E0,3.784379959E-1,5.785400048E-2,-5.886399746E-1,7.021819008E-1
4.372002230E0,3.311029971E-1,7.577399909E-2,-4.488449991E-1,5.628789628E-1
4.377013002E0,2.863880098E-1,7.455399632E-2,-2.747550011E-1,4.038151819E-1
4.382023846E0,2.419539988E-1,6.354899704E-2,-1.020620018E-1,2.701793197E-1
4.387034617E0,1.955170035E-1,1.341100037E-2,1.721600071E-2,1.967311472E-1
4.392045386E0,1.120520011E-1,-6.635800004E-2,1.144419983E-1,1.733666810E-1
4.397056399E0,2.715400048E-2,-1.408270001E-1,1.857029945E-1,2.346384152E-1
4.402067171E0,-7.348699868E-2,-1.919779927E-1,2.201289982E-1,3.011854320E-1
4.407078015E0,-1.947840005E-1,-2.600969970E-1,2.843550146E-1,4.317974398E-1
4.412089019E0,-2.995670140E-1,-2.842859924E-1,3.435209990E-1,5.371830210E-1
4.417099790E0,-3.516640067E-1,-2.756460011E-1,3.723089993E-1,5.816032002E-1
4.422110531E0,-3.438189924E-1,-2.274529934E-1,4.448390007E-1,6.064883348E-1
4.427121300E0,-3.079999983E-1,-1.407040060E-1,5.187519789E-1,6.194878787E-1
4.432132145E0,-2.285259962E-1,-3.529499844E-2,5.777360201E-1,6.222931598E-1
4.437142915E0,-1.458639950E-1,5.769300088E-2,6.241739988E-1,6.435821379E-1
4.442153684E0,-2.471200004E-2,1.356900036E-1,6.461290121E-1,6.606853717E-1
4.447164668E0,9.728199989E-2,1.774310023E-1,6.339060068E-1,6.654189459E-1
4.452175516E0,1.973350048E-1,1.905360073E-1,5.969160199E-1,6.569275523E-1
4.457186286E0,2.673900127E-1,2.030639946E-1,4.858059883E-1,5.905420079E-1
4.462197069E0,3.061699867E-1,2.270130068E-1,3.558059931E-1,5.214142986E-1
4.467208067E0,3.403210044E-1,2.620700002E-1,1.953060031E-1,4.718511480E-1
4.472218829E0,3.538680077E-1,2.944209874E-1,3.268900141E-2,4.614919885E-1
4.477229673E0,3.240959942E-1,3.177280128E-1,-1.086329967E-1,4.666802241E-1
4.482240444E0,2.849079967E-1,2.831929922E-1,-2.370869964E-1,4.664558728E-1
4.487251418E0,2.384579927E-1,2.394929975E-1,-3.343259990E-1,4.753871935E-1
4.492262190E0,1.731840074E-1,1.900140047E-1,-3.772659898E-1,4.565387710E-1
4.497272943E0,1.195600033E-1,1.451310068E-1,-3.643859923E-1,4.100423818E-1
4.502283787E0,4.245499894E-2,6.003399938E-2,-3.464159966E-1,3.541335210E-1
4.507294558E0,-1.819599979E-2,-2.279300056E-2,-3.444960117E-1,3.457283867E-1
4.512305542E0,-6.812400371E-2,-6.818500161E-2,-3.174560070E-1,3.317655659E-1
4.517316391E0,-8.958999813E-2,-7.206500322E-2,-2.696950138E-1,2.931810582E-1
4.522327160E0,-8.610299975E-2,-3.763100132E-2,-2.126419991E-1,2.324788993E-1
4.527338149E0,-6.086599827E-2,-7.780000102E-3,-1.226909980E-1,1.371797330E-1
4.532348689E0,-2.107400075E-2,1.631099917E-2,-1.016480029E-1,1.050831989E-1
4.537359692E0,-3.945999779E-3,-5.228000227E-3,-8.784600347E-2,8.808985882E-2
4.542370540E0,-1.745000016E-3,-1.314099971E-2,-1.045790017E-1,1.054158360E-1
4.547381323E0,4.842000082E-2,3.298500180E-2,-8.013399690E-2,9.926713597E-2
4.552392092E0,1.453430057E-1,1.044050008E-1,-4.102899879E-2,1.835983993E-1
4.557403081E0,2.766230106E-1,1.779319942E-1,3.590999916E-2,3.308619238E-1
4.562413852E0,3.862360120E-1,2.394530028E-1,9.569600224E-2,4.644068500E-1
4.567424701E0,4.917789996E-1,2.790369987E-1,9.097900242E-2,5.727001047E-1
4.572435473E0,5.330569744E-1,2.953369915E-1,1.049090028E-1,6.183684787E-1
4.577446475E0,5.051519871E-1,2.753930092E-1,1.413599998E-1,5.924546304E-1
4.582457246E0,4.053770006E-1,2.222640067E-1,1.880999953E-1,4.991126221E-1
4.587468015E0,2.661049962E-1,1.431059986E-1,2.046760023E-1,3.649430939E-1
4.592478864E0,1.205890030E-1,6.184900180E-2,2.365060002E-1,2.725841059E-1
4.597489636E0,-1.036200020E-2,-3.132599965E-2,2.525990009E-1,2.547448617E-1
4.602500405E0,-1.438370049E-1,-1.458799988E-1,2.767469883E-1,3.443239079E-1
4.607511389E0,-2.710599899E-1,-2.441390008E-1,3.094100058E-1,4.783428912E-1
4.612522237E0,-3.948079944E-1,-3.536620140E-1,2.727369964E-1,5.961003622E-1
4.617532929E0,-4.598439932E-1,-4.584879875E-1,2.149350047E-1,6.840064247E-1
4.622543773E0,-4.916380048E-1,-5.174999833E-1,1.111959964E-1,7.224117317E-1
4.627554545E0,-5.126119852E-1,-5.431309938E-1,1.201699954E-2,7.469315445E-1
4.632565557E0,-5.006970167E-1,-4.928520024E-1,-2.745399997E-2,7.031033501E-1
4.637576405E0,-4.524469972E-1,-4.000500143E-1,-1.000399981E-2,6.040268033E-1
4.642587179E0,-3.757300079E-1,-2.768520117E-1,2.367500030E-2,4.673120808E-1
4.647597948E0,-2.546269894E-1,-1.303839982E-1,8.532600105E-2,2.985220547E-1
4.652608946E0,-9.649799764E-2,-8.524999954E-3,1.031479985E-1,1.415063559E-1
4.657619718E0,5.192200094E-2,9.353099763E-2,6.779500097E-2,1.266495316E-1
4.662630562E0,1.891929954E-1,1.717000008E-1,2.191600017E-2,2.564277498E-1
4.667641347E0,2.603580058E-1,2.346419990E-1,1.968999952E-2,3.510425258E-1
4.672652345E0,2.958469987E-1,2.613509893E-1,-1.082300022E-2,3.949011567E-1
4.677663116E0,3.271340132E-1,2.617549896E-1,-6.509900093E-2,4.239931805E-1
4.682673890E0,3.311780095E-1,2.468339950E-1,-5.814899877E-2,4.171177305E-1
4.687684735E0,3.021349907E-1,2.307219952E-1,-7.807300240E-2,3.880896615E-1
4.692695506E0,2.621960044E-1,1.731189936E-1,-1.346960068E-1,3.418478388E-1
4.697706499E0,1.813250035E-1,9.121000022E-2,-2.019290030E-1,2.863098728E-1
4.702717270E0,8.609999716E-2,2.614100091E-2,-2.251439989E-1,2.424590309E-1
4.707728039E0,5.319999903E-2,-3.692800179E-2,-2.521699965E-1,2.603528843E-1
4.712738899E0,4.995099828E-2,-8.848000318E-2,-2.449650019E-1,2.652011790E-1
4.717749670E0,6.329900026E-2,-1.283950061E-1,-1.918819994E-1,2.393966222E-1
4.722760668E0,8.084399998E-2,-1.901759952E-1,-1.312900037E-1,2.448259107E-1
4.727771448E0,1.070280001E-1,-2.441630065E-1,-1.264919937E-1,2.950776017E-1
4.732782292E0,7.179799676E-2,-2.891690135E-1,-1.807969958E-1,3.485128755E-1
4.737793063E0,-2.809800021E-2,-3.182420135E-1,-2.338750064E-1,3.959355950E-1
4.742803828E0,-1.635529995E-1,-3.003140092E-1,-2.305680066E-1,4.124314409E-1
4.747814826E0,-2.691319883E-1,-2.544269860E-1,-1.784449965E-1,4.111055036E-1
4.752825597E0,-3.411720097E-1,-2.104920000E-1,-4.056899995E-2,4.029281152E-1
4.757836672E0,-2.826420069E-1,-1.485430002E-1,5.942700058E-2,3.247816118E-1
4.762847212E0,-2.568530142E-1,-1.346819997E-1,-3.514999989E-3,2.900432161E-1
4.767858210E0,-2.290589958E-1,-8.467400074E-2,2.023000037E-3,2.442167122E-1
4.772868982E0,-2.084099948E-1,-1.704500057E-2,4.444399849E-2,2.137768159E-1
4.777879812E0,-1.607999951E-1,1.391300000E-2,7.290299982E-2,1.771018277E-1
4.782890583E0,-9.696400166E-2,-1.162999962E-2,-4.089999944E-2,1.058776863E-1
4.787901323E0,-4.265499860E-2,-3.373700008E-2,-1.749179959E-1,1.831773441E-1
4.792912321E0,-7.629999891E-4,-2.258300036E-2,-2.298039943E-1,2.309122125E-1
4.797923093E0,1.477800030E-2,-6.281000096E-3,-2.539060116E-1,2.544132524E-1
4.802933937E0,3.965999931E-2,3.195599839E-2,-2.568799853E-1,2.618805610E-1
4.807944708E0,5.516599864E-2,8.949500322E-2,-2.671180069E-1,2.870621407E-1
4.812955706E0,7.078000158E-2,1.612460017E-1,-2.915279865E-1,3.405857434E-1
4.817966487E0,1.050359979E-1,2.291740030E-1,-2.547349930E-1,3.583897336E-1
4.822977256E0,1.178380027E-1,2.493740022E-1,-1.557600051E-1,3.167560056E-1
4.827988101E0,9.393200278E-2,2.385129929E-1,-8.276700228E-2,2.693734315E-1
4.832998896E0,7.829499990E-2,1.874749959E-1,4.370000213E-3,2.032143646E-1
4.838009894E0,4.243800044E-2,1.366959959E-1,1.035400033E-1,1.766559126E-1
4.843020650E0,3.024999984E-3,3.872299939E-2,2.095520049E-1,2.131212427E-1
4.848031494E0,-4.699299857E-2,-5.629099905E-2,3.321110010E-1,3.401098874E-1
4.853042266E0,-1.146380007E-1,-1.258189976E-1,4.199840128E-1,4.531653809E-1
4.858053045E0,-1.788229942E-1,-1.732870042E-1,4.860599935E-1,5.461321877E-1
4.863064043E0,-2.096990049E-1,-1.856240034E-1,5.337219834E-1,6.027346837E-1
4.868074818E0,-2.315209955E-1,-1.550820023E-1,5.096169710E-1,5.808285943E-1
4.873085587E0,-2.280810028E-1,-1.155479997E-1,4.690279961E-1,5.341905514E-1
4.878096431E0,-1.997179985E-1,-5.422300100E-2,3.320150077E-1,3.912305946E-1
4.883107175E0,-1.658840030E-1,3.400399908E-2,2.298139930E-1,2.854614611E-1
4.888117944E0,-1.217800006E-1,1.111460030E-1,1.166879982E-1,2.019898301E-1
4.893128942E0,-6.943000015E-3,1.703699976E-1,-5.642999895E-3,1.706047619E-1
4.898139732E0,1.280709952E-1,2.294439971E-1,-8.555299789E-2,2.763440665E-1
4.903150576E0,2.573809922E-1,3.268040121E-1,-1.374209970E-1,4.380985823E-1
4.908161576E0,3.468210101E-1,3.894590139E-1,-1.739809960E-1,5.497567858E-1
4.913172353E0,4.073640108E-1,4.337730110E-1,-2.735069990E-1,6.549126208E-1
4.918183197E0,4.142650068E-1,4.436979890E-1,-3.837029934E-1,7.181304815E-1
4.923193968E0,3.784030080E-1,3.865100145E-1,-5.194309950E-1,7.499249205E-1
4.928204980E0,3.009639978E-1,2.732560039E-1,-6.388580203E-1,7.572237065E-1
4.933215751E0,1.993889958E-1,9.321399778E-2,-7.455199957E-1,7.773319014E-1
4.938226520E0,1.017360017E-1,-8.617199957E-2,-8.304589987E-1,8.410933218E-1
4.943237290E0,-2.522099949E-2,-2.544170022E-1,-8.538929820E-1,8.913457996E-1
4.948248129E0,-1.373510063E-1,-3.797119856E-1,-7.833449841E-1,8.812921507E-1
4.953258900E0,-2.333990037E-1,-4.646579921E-1,-6.667029858E-1,8.455028183E-1
4.958269898E0,-2.839730084E-1,-5.238029957E-1,-5.089280009E-1,7.835929797E-1
4.963280664E0,-2.931460142E-1,-5.672799945E-1,-3.337320089E-1,7.204985993E-1
4.968291509E0,-2.598899901E-1,-5.790879726E-1,-1.382430047E-1,6.496128196E-1
4.973302280E0,-2.129099965E-1,-5.722759962E-1,3.558000177E-2,6.116342199E-1
4.978313054E0,-1.336150020E-1,-5.271980166E-1,1.560450047E-1,5.658098276E-1
4.983324052E0,-3.170299903E-2,-4.903079867E-1,2.145480067E-1,5.361323057E-1
4.988334823E0,7.864599675E-2,-4.435259998E-1,2.169760019E-1,4.999790902E-1
4.993345677E0,1.627209932E-1,-3.901199996E-1,1.501030028E-1,4.485561806E-1
4.998356449E0,1.913799942E-1,-3.470920026E-1,3.373000026E-2,3.977899865E-1
5.003367232E0,1.849510074E-1,-3.091270030E-1,-7.977999747E-2,3.689596551E-1
5.008378230E0,1.491100043E-1,-2.588059902E-1,-1.645970047E-1,3.410373996E-1
5.013389063E0,1.309179962E-1,-2.069990039E-1,-1.980579942E-1,3.149842511E-1
5.018399832E0,1.230869964E-1,-1.536089927E-1,-2.329249978E-1,3.049593185E-1
5.023410593E0,1.022280008E-1,-1.241929978E-1,-2.578920126E-1,3.039453158E-1
5.028421591E0,8.285299689E-2,-1.156269982E-1,-2.712660134E-1,3.062996439E-1
5.033432367E0,6.724700332E-2,-1.113089994E-1,-3.088200092E-1,3.350845429E-1
5.038443211E0,3.647900000E-2,-1.217179969E-1,-2.762899995E-1,3.041087832E-1
5.043454001E0,-2.740300074E-2,-1.694280058E-1,-2.035049945E-1,2.662161836E-1
5.048464999E0,-8.133199811E-2,-2.478920072E-1,-1.879280061E-1,3.215311441E-1
5.053475761E0,-1.139620021E-1,-3.384999931E-1,-2.028149962E-1,4.107353235E-1
5.058486530E0,-1.286499947E-1,-4.435060024E-1,-2.054170072E-1,5.054152176E-1
5.063497369E0,-1.402820051E-1,-5.444300175E-1,-2.286659926E-1,6.069359283E-1
5.068508140E0,-1.195989996E-1,-5.666729808E-1,-2.638010085E-1,6.364064424E-1
5.073519138E0,-8.001299948E-2,-5.421670079E-1,-2.768310010E-1,6.139890453E-1
5.078529924E0,-1.370599959E-2,-4.451279938E-1,-2.173710018E-1,4.955571993E-1
5.083540694E0,2.751299925E-2,-3.140499890E-1,-1.305170059E-1,3.412023586E-1
5.088551463E0,2.394800074E-2,-1.661760062E-1,-6.323999912E-2,1.794081081E-1
5.093562307E0,7.583000232E-3,-2.158799954E-2,-5.511299893E-2,5.967399993E-2
5.098573078E0,-1.389500033E-2,8.420500159E-2,-7.529599965E-2,1.138114269E-1
5.103584076E0,-4.731500149E-2,1.874320060E-1,-8.096600324E-2,2.095828235E-1
5.108594848E0,-6.675200164E-2,2.488860041E-1,-5.212900043E-2,2.629020834E-1
5.113605692E0,-4.897300154E-2,2.904939950E-1,-2.281700075E-2,2.954754330E-1
5.118616692E0,-2.962999977E-2,3.270469904E-1,6.589999888E-3,3.284525824E-1
5.123627463E0,-2.226500027E-2,3.286170065E-1,6.381999701E-2,3.354964370E-1
5.128638217E0,4.327999894E-3,2.786349952E-1,7.212699950E-2,2.878515176E-1
5.133649061E0,4.058999941E-2,2.180130035E-1,6.239200011E-2,2.303692241E-1
5.138659833E0,6.769800186E-2,1.581159979E-1,4.170000087E-3,1.720496357E-1
5.143670617E0,6.502699852E-2,1.042110026E-1,-3.821700066E-2,1.286428495E-1
5.148681615E0,5.640399829E-2,4.272500053E-2,-3.686400130E-2,7.978590906E-2
5.153692391E0,4.633000121E-2,-2.257999964E-3,-1.555999974E-3,4.641108393E-2
5.158703235E0,4.382099956E-2,-9.726000018E-3,5.854099989E-2,7.376939573E-2
5.163714011E0,6.699000299E-2,4.939999781E-4,1.151790023E-1,1.332445387E-1
5.168724780E0,1.354600042E-1,4.902200028E-2,1.927949935E-1,2.406708931E-1
5.173735769E0,1.967779994E-1,9.925799817E-2,2.442730069E-1,3.290030899E-1
5.178746540E0,2.444410026E-1,1.272960007E-1,2.888869941E-1,3.992635357E-1
5.183757369E0,2.511999905E-1,1.349209994E-1,2.748990059E-1,3.960739511E-1
5.188768140E0,2.322659940E-1,1.122270003E-1,2.028210014E-1,3.281444044E-1
5.193779138E0,1.536830068E-1,7.122100145E-2,9.932799637E-2,1.963592332E-1
5.198789910E0,6.094500050E-2,3.625199944E-2,2.383100055E-2,7.480920489E-2
5.203800679E0,-3.412900120E-2,6.980000180E-4,-2.425199933E-2,4.187404206E-2
5.208811523E0,-7.829499990E-2,-6.912999786E-3,-4.511199892E-2,9.062554287E-2
5.213822304E0,-9.619700164E-2,-3.429000033E-3,-6.272599846E-2,1.148920017E-1
5.218833302E0,-7.941299677E-2,2.360000042E-3,-2.785700001E-2,8.419029698E-2
5.223844064E0,-4.986599833E-2,3.644499928E-2,1.906199940E-2,6.463911805E-2
5.228854908E0,1.097000018E-2,6.292700022E-2,5.637900159E-2,8.519823989E-2
5.233865679E0,4.706199840E-2,7.427799702E-2,4.165700078E-2,9.730035071E-2
5.238876448E0,1.014899984E-1,7.668100297E-2,-5.520400032E-2,1.386639017E-1
5.243887218E0,1.273739934E-1,8.424399793E-2,-1.858880073E-1,2.405733498E-1
5.248898230E0,1.462370008E-1,1.195719987E-1,-2.389869988E-1,3.046268355E-1
5.253909001E0,1.536390036E-1,1.336189955E-1,-2.539199889E-1,3.254755600E-1
5.258919770E0,1.687970012E-1,1.334740072E-1,-2.880170047E-1,3.595296000E-1
5.263930614E0,1.890919954E-1,1.312479973E-1,-3.271149993E-1,3.999825524E-1
5.268941614E0,1.839299947E-1,9.790900350E-2,-2.679289877E-1,3.394147292E-1
5.273952385E0,1.517159939E-1,2.944199927E-2,-1.900600046E-1,2.449640371E-1
5.278963240E0,1.118379980E-1,-5.785100162E-2,-1.552270055E-1,1.998747093E-1
5.283974011E0,4.820200056E-2,-1.569509953E-1,-1.344220042E-1,2.121940692E-1
5.288985009E0,-3.650699928E-2,-2.180150002E-1,-1.008419991E-1,2.429658620E-1
5.293995785E0,-1.004690006E-1,-2.463330030E-1,-4.943700135E-2,2.705882214E-1
5.299006554E0,-1.678420007E-1,-2.398640066E-1,3.207299858E-2,2.945069713E-1
5.304017324E0,-1.992129982E-1,-2.225749940E-1,1.410849988E-1,3.303489420E-1
5.309028168E0,-2.373259962E-1,-2.189510018E-1,2.136230022E-1,3.871665749E-1
5.314038939E0,-2.375809997E-1,-2.434930056E-1,2.616209984E-1,4.291609512E-1
5.319049937E0,-2.334160060E-1,-3.032900095E-1,2.921800017E-1,4.814945640E-1
5.324060765E0,-2.317840010E-1,-3.588590026E-1,2.563009858E-1,4.981905280E-1
5.329071457E0,-2.513250113E-1,-4.037739933E-1,1.715860069E-1,5.056080069E-1
5.334082302E0,-2.638730109E-1,-4.219979942E-1,7.451800257E-2,5.032536196E-1
5.339093073E0,-2.722289860E-1,-4.229049981E-1,6.929999799E-4,5.029490416E-1
5.344104071E0,-2.608650029E-1,-3.862119913E-1,3.963200003E-2,4.677402563E-1
5.349114842E0,-2.214989960E-1,-2.804250121E-1,1.882690042E-1,4.039123799E-1
5.354125686E0,-1.822060049E-1,-1.841779947E-1,3.459089994E-1,4.321731110E-1
5.359136458E0,-1.280699968E-1,-1.014449969E-1,3.874180019E-1,4.204589393E-1
5.364147456E0,-4.270799831E-2,-5.153600127E-2,3.822749853E-1,3.880903206E-1
5.369158227E0,4.312499985E-2,-3.031600080E-2,2.881369889E-1,2.929193573E-1
5.374168972E0,7.839799672E-2,-1.540999976E-3,2.007270008E-1,2.154993026E-1
5.379179816E0,1.134330034E-1,6.307800114E-2,1.085319966E-1,1.691894642E-1
5.384190587E0,1.600590050E-1,1.021479964E-1,2.507000044E-2,1.915244193E-1
5.389201595E0,1.878180057E-1,1.351259947E-1,-6.896100193E-2,2.414337538E-1
5.394212367E0,2.276660055E-1,1.458310038E-1,-1.598020047E-1,3.140623703E-1
5.399223211E0,2.398660034E-1,1.352750063E-1,-2.363000065E-1,3.628673587E-1
5.404234006E0,1.882009953E-1,1.020049974E-1,-2.941749990E-1,3.638180372E-1
5.409244775E0,1.090990007E-1,4.240699857E-2,-3.129709959E-1,3.341433671E-1
5.414255782E0,5.664600059E-2,-5.956799909E-2,-3.079749942E-1,3.187565104E-1
5.419266554E0,2.030899934E-2,-1.801760048E-1,-3.055379987E-1,3.552876536E-1
5.424277398E0,-4.284299910E-2,-2.698160112E-1,-2.977840006E-1,4.041181925E-1
5.429288160E0,-1.144760028E-1,-3.145489991E-1,-2.389969975E-1,4.112972074E-1
5.434298929E0,-1.692599952E-1,-3.129160106E-1,-1.667270064E-1,3.928909141E-1
5.439309927E0,-2.033479959E-1,-2.474620044E-1,-1.105810031E-1,3.388451111E-1
5.444320779E0,-2.266950011E-1,-1.762309968E-1,-7.241900265E-2,2.961291943E-1
5.449331472E0,-2.092700005E-1,-1.090449989E-1,-4.027299955E-2,2.393880936E-1
5.454342239E0,-1.819880009E-1,-7.431600243E-2,-2.158799954E-2,1.977587985E-1
5.459353071E0,-1.426810026E-1,-2.424599975E-2,1.475000009E-2,1.454761132E-1
5.464363842E0,-7.754100114E-2,3.214700148E-2,9.677299857E-2,1.281056198E-1
5.469374811E0,-1.455799956E-2,3.436499834E-2,7.218900323E-2,8.126586399E-2
5.474385660E0,7.428699732E-2,4.913299903E-2,3.206399828E-2,9.466102445E-2
5.479396405E0,1.489879936E-1,1.074080020E-1,5.431999918E-3,1.837482184E-1
5.484407403E0,2.151499987E-1,1.851760000E-1,-4.091800004E-2,2.867995042E-1
5.489418164E0,2.548429966E-1,2.563909888E-1,-1.045849994E-1,3.763234170E-1
5.494428933E0,2.924500108E-1,2.764280140E-1,-1.839269996E-1,4.424574521E-1
5.499439703E0,3.167450130E-1,2.321549952E-1,-2.656790018E-1,4.741399340E-1
5.504450519E0,3.325909972E-1,1.698810011E-1,-3.291699886E-1,4.978244745E-1
5.509461290E0,2.890599966E-1,9.565400332E-2,-3.490320146E-1,4.631724487E-1
5.514472288E0,2.131240070E-1,2.416799963E-2,-3.422510028E-1,4.039080136E-1
5.519483146E0,1.519269943E-1,-4.918299988E-2,-3.139739931E-1,3.522505463E-1
5.524493915E0,7.673200220E-2,-1.438139975E-1,-3.046090007E-1,3.454806931E-1
5.529504704E0,-5.607000086E-3,-2.359739989E-1,-2.901130021E-1,3.740063109E-1
5.534515473E0,-7.901799679E-2,-3.211250007E-1,-2.607930005E-1,4.211627939E-1
5.539526486E0,-1.209689975E-1,-4.042829871E-1,-2.119269967E-1,4.722195294E-1
5.544537257E0,-1.584440023E-1,-4.410530031E-1,-1.544979960E-1,4.934591008E-1
5.549548086E0,-1.873359978E-1,-4.417580068E-1,-8.548700064E-2,4.873940294E-1
5.554558858E0,-1.893469989E-1,-3.937470019E-1,-5.595700070E-2,4.404772110E-1
5.559569856E0,-1.718450040E-1,-3.555420041E-1,-1.007210016E-1,4.075359398E-1
5.564580627E0,-1.259460002E-1,-3.203159869E-1,-1.717189997E-1,3.846454748E-1
5.569591396E0,-7.296100259E-2,-2.787030041E-1,-2.686859965E-1,3.939426826E-1
5.574602255E0,-1.743599959E-2,-2.352650017E-1,-3.774299920E-1,4.450921634E-1
5.579613026E0,4.301299900E-2,-1.680729985E-1,-4.600569904E-1,4.916818944E-1
5.584623791E0,6.652999669E-2,-9.903000295E-2,-4.561760128E-1,4.715185432E-1
5.589634789E0,8.901699632E-2,-5.830000155E-3,-4.000819921E-1,4.099068370E-1
5.594645560E0,1.666619927E-1,9.528400004E-2,-3.093320131E-1,3.640625699E-1
5.599656329E0,3.076429963E-1,1.693480015E-1,-1.852010041E-1,3.970168393E-1
5.604667173E0,4.365890026E-1,2.144979984E-1,-6.386800110E-2,4.906103037E-1
5.609677945E0,5.268309712E-1,1.971630007E-1,-1.899500005E-2,5.628365048E-1
5.614688714E0,5.565400124E-1,1.417140067E-1,1.160799991E-2,5.744165655E-1
5.619699712E0,5.065510273E-1,6.481199712E-2,2.202000003E-3,5.106852132E-1
5.624710468E0,4.341019988E-1,-2.333000069E-3,2.201999910E-2,4.346663877E-1
5.629721312E0,3.274680078E-1,-4.073100165E-2,7.125999779E-2,3.375978346E-1
5.634732084E0,2.057529986E-1,-6.060599908E-2,1.218969971E-1,2.467108864E-1
5.639743073E0,6.415700167E-2,-7.243800163E-2,1.437750012E-1,1.733050372E-1
5.644753844E0,-5.767599866E-2,-8.872599900E-2,1.516070068E-1,1.848878261E-1
5.649764608E0,-1.584910005E-1,-1.054010019E-1,1.411180049E-1,2.369452674E-1
5.654775452E0,-2.392130047E-1,-1.226229966E-1,1.362189949E-1,3.013550654E-1
5.659786452E0,-2.753280103E-1,-1.192829981E-1,1.441420019E-1,3.328826574E-1
5.664797237E0,-2.661449909E-1,-8.852899820E-2,1.816110015E-1,3.341453210E-1
5.669808007E0,-2.314620018E-1,-4.042100161E-2,2.106810063E-1,3.155867584E-1
5.674818880E0,-1.878760010E-1,-3.755999962E-3,2.218929976E-1,2.907713908E-1
5.679829651E0,-1.167870015E-1,4.293400049E-2,2.343360037E-1,2.653222470E-1
5.684840659E0,-2.971900068E-2,6.111299992E-2,1.933300048E-1,2.049256170E-1
5.689851430E0,5.460700020E-2,7.974100113E-2,1.489689946E-1,1.775734020E-1
5.694862200E0,1.158519983E-1,1.062140018E-1,9.650299698E-2,1.844340753E-1
5.699873063E0,1.528159976E-1,1.099700034E-1,3.563199937E-2,1.916135959E-1
5.704883834E0,1.643420011E-1,1.011999995E-1,-2.923800051E-2,1.952039802E-1
5.709894832E0,1.280820072E-1,8.990599960E-2,-9.105700254E-2,1.810510067E-1
5.714905603E0,7.805000246E-2,3.925599903E-2,-1.105500013E-1,1.409047165E-1
5.719916447E0,6.339299679E-2,-1.236199960E-2,-1.191650033E-1,1.355425730E-1
5.724927219E0,8.760000020E-2,-6.494499743E-2,-1.219620034E-1,1.636042267E-1
5.729937988E0,1.517290026E-1,-1.001899987E-1,-1.422699988E-1,2.308689642E-1
5.734948976E0,1.942079961E-1,-1.377730072E-1,-2.033350021E-1,3.131186202E-1
5.739959747E0,1.899490058E-1,-1.731120050E-1,-2.783749998E-1,3.788680926E-1
5.744970591E0,1.305889934E-1,-2.054149956E-1,-3.129340112E-1,3.964549167E-1
5.749981378E0,3.586599976E-2,-2.249179929E-1,-3.094840050E-1,3.842587967E-1
5.754992147E0,-6.114099920E-2,-2.316440046E-1,-2.872250080E-1,3.740258973E-1
5.760003145E0,-1.095250025E-1,-2.546240091E-1,-2.677130103E-1,3.853561575E-1
5.765013925E0,-1.341439933E-1,-2.846719921E-1,-2.626990080E-1,4.099311196E-1
5.770024694E0,-1.453029960E-1,-3.078649938E-1,-2.623150051E-1,4.297708424E-1
5.775035538E0,-1.506589949E-1,-2.845140100E-1,-2.752029896E-1,4.235363504E-1
5.780046320E0,-1.529799998E-1,-2.036350071E-1,-2.932420075E-1,3.884082536E-1
5.785057089E0,-1.314280033E-1,-1.191539988E-1,-2.411569953E-1,2.993788434E-1
5.790068096E0,-8.157300204E-2,-4.510299861E-2,-1.839679927E-1,2.062344721E-1
5.795078867E0,-1.537900046E-2,3.762099892E-2,-1.335919946E-1,1.396376534E-1
5.800089622E0,7.429999858E-2,9.162499756E-2,-6.463400275E-2,1.345109077E-1
5.805100467E0,1.874540001E-1,1.197459996E-1,-3.875999944E-3,2.224705148E-1
5.810111233E0,2.589060068E-1,1.294600070E-1,3.438900039E-2,2.915044032E-1
5.815122231E0,2.367870063E-1,9.101500362E-2,8.766700327E-2,2.683976913E-1
5.820133031E0,1.725129932E-1,5.448200181E-2,1.300420016E-1,2.228002323E-1
5.825143875E0,1.413480043E-1,2.036399953E-2,2.229350060E-1,2.647526538E-1
5.830154647E0,1.400009990E-1,-4.321699962E-2,2.592900097E-1,2.978242736E-1
5.835165401E0,1.398999989E-1,-1.368270069E-1,2.373390049E-1,3.076092371E-1
5.840176399E0,1.199650019E-1,-2.371760011E-1,1.674129963E-1,3.141196723E-1
5.845187170E0,2.488899976E-2,-3.416549861E-1,9.278099984E-2,3.549026709E-1
5.850197939E0,-9.476500005E-2,-4.121010005E-1,4.235000163E-2,4.249719550E-1
5.855208783E0,-2.064000070E-1,-4.486530125E-1,3.285299987E-2,4.949442475E-1
5.860219769E0,-2.480120063E-1,-4.427829981E-1,2.657599933E-2,5.082056891E-1
5.865230541E0,-2.454279959E-1,-4.141420126E-1,3.323100135E-2,4.825482434E-1
5.870241310E0,-2.232100070E-1,-3.850870132E-1,8.870000020E-4,4.451016757E-1
5.875252154E0,-1.799730062E-1,-3.041990101E-1,-4.547199979E-2,3.563636114E-1
5.880262925E0,-1.118569970E-1,-2.073940039E-1,-7.251899689E-2,2.465426242E-1
5.885273685E0,2.030700073E-2,-1.049339995E-1,-1.396570057E-1,1.758624399E-1
5.890284683E0,1.336960047E-1,-5.332999863E-3,-1.688030064E-1,2.154008300E-1
5.895295459E0,2.085500062E-1,1.061080024E-1,-1.934179962E-1,3.035828297E-1
5.900306303E0,2.767890096E-1,2.157469988E-1,-2.020860016E-1,4.049662645E-1
5.905317074E0,3.414930105E-1,3.282969892E-1,-2.424210012E-1,5.321318739E-1
5.910327843E0,4.078390002E-1,4.087879956E-1,-2.793979943E-1,6.414853971E-1
5.915338841E0,4.344800115E-1,4.328800142E-1,-2.740930021E-1,6.717774638E-1
5.920349656E0,4.114139974E-1,3.993369937E-1,-2.680610120E-1,6.329203883E-1
5.925360425E0,3.381229937E-1,3.184959888E-1,-2.785519958E-1,5.416253946E-1
5.930371189E0,2.369460016E-1,2.036969960E-1,-2.399290055E-1,3.939565986E-1
5.935381958E0,1.338360012E-1,6.299699843E-2,-1.652009934E-1,2.217477514E-1
5.940392956E0,7.520999759E-2,-1.150979996E-1,-6.711599976E-2,1.529988584E-1
5.945403728E0,1.967299916E-2,-2.832340002E-1,2.842699923E-2,2.853359775E-1
5.950414572E0,-3.119999915E-2,-4.016729891E-1,1.558299959E-1,4.319694639E-1
5.955425343E0,-3.881499916E-2,-4.978600144E-1,2.752510011E-1,5.702054996E-1
5.960436346E0,-2.362300083E-2,-5.285530090E-1,3.577120006E-1,6.386581283E-1
5.965446887E0,-3.080699965E-2,-5.120900273E-1,4.121339917E-1,6.580575161E-1
5.970457876E0,-6.236900017E-2,-4.376749992E-1,4.661299884E-1,6.424379061E-1
5.975468647E0,-1.107940003E-1,-3.348070085E-1,5.133849978E-1,6.228444424E-1
5.980479491E0,-1.430509984E-1,-2.275100052E-1,5.730170012E-1,6.329082669E-1
5.985490252E0,-1.406590044E-1,-1.310230047E-1,5.811730027E-1,6.121389077E-1
5.990501021E0,-1.439799964E-1,-4.379599914E-2,5.100659728E-1,5.318041233E-1
5.995512019E0,-1.152469963E-1,1.300300006E-2,4.238019884E-1,4.393848808E-1
6.000522873E0,-6.448300183E-2,7.987400144E-2,3.153089881E-1,3.315986604E-1
6.005533642E0,-1.151000033E-3,1.308989972E-1,1.889919937E-1,2.298996432E-1
6.010544411E0,3.759999946E-2,1.503500044E-1,5.362699926E-2,1.639961550E-1
6.015555189E0,4.135299847E-2,1.556320041E-1,-9.110400081E-2,1.850171077E-1
6.020566187E0,2.995299920E-2,1.806170046E-1,-2.358420044E-1,2.985651279E-1
6.025577036E0,1.531700045E-2,2.375539988E-1,-3.665010035E-1,4.370234530E-1
6.030587805E0,-2.321499959E-2,2.888050079E-1,-4.931179881E-1,5.719376006E-1
6.035598574E0,-3.855999932E-2,3.445160091E-1,-5.925260186E-1,6.864876086E-1
6.040609596E0,-2.679600008E-2,3.488959968E-1,-6.355819702E-1,7.255417859E-1
6.045620367E0,1.368200034E-2,3.355700076E-1,-6.872270107E-1,7.649022103E-1
6.050631142E0,4.480599985E-2,3.009330034E-1,-6.793569922E-1,7.443750218E-1
6.055641986E0,9.449099749E-2,2.834460139E-1,-6.315310001E-1,6.986426809E-1
6.060652786E0,9.499800205E-2,2.071930021E-1,-5.848180056E-1,6.276668385E-1
6.065663784E0,5.687699839E-2,6.612300128E-2,-5.163419843E-1,5.236566518E-1
6.070674550E0,-7.581000216E-3,-7.297699898E-2,-4.377669990E-1,4.438727964E-1
6.075685319E0,-9.157600254E-2,-1.609610021E-1,-3.503339887E-1,3.962682325E-1
6.080696089E0,-1.328929961E-1,-1.871519983E-1,-2.459959984E-1,3.364527457E-1
6.085706933E0,-1.380610019E-1,-1.833249927E-1,-1.124799997E-1,2.555790357E-1
6.090717933E0,-9.442400187E-2,-1.533090025E-1,-6.053000223E-3,1.801559913E-1
6.095728680E0,-5.449000001E-2,-8.180200309E-2,6.772600114E-2,1.193630556E-1
6.100739449E0,2.133199945E-2,4.666100070E-2,1.219590008E-1,1.323113792E-1
6.105750277E0,1.023870036E-1,1.836059988E-1,1.382900029E-1,2.516314491E-1
6.110761049E0,1.590539962E-1,2.625620067E-1,1.212920025E-1,3.300738265E-1
6.115772047E0,2.019689977E-1,3.100160062E-1,6.628400087E-2,3.758922305E-1
6.120782843E0,2.365369946E-1,3.382680118E-1,-1.736200042E-2,4.131300481E-1
6.125793612E0,2.932020128E-1,3.861530125E-1,-5.861600116E-2,4.883824372E-1
6.130804390E0,3.228810132E-1,4.332560003E-1,-5.841999874E-2,5.434848725E-1
6.135815235E0,3.273079991E-1,4.277369976E-1,-8.903499693E-2,5.459090548E-1
6.140826011E0,2.615599930E-1,3.319799900E-1,-1.959509999E-1,4.658552759E-1
6.145837009E0,1.234019995E-1,1.483419985E-1,-2.735489905E-1,3.347573034E-1
6.150847780E0,-4.326400161E-2,-7.415000349E-2,-3.301469982E-1,3.411261310E-1
6.155858544E0,-2.006119937E-1,-2.941409945E-1,-3.546499908E-1,5.025342900E-1
6.160869389E0,-3.613330126E-1,-4.823360145E-1,-3.119649887E-1,6.786248824E-1
6.165880160E0,-4.888789952E-1,-6.132169962E-1,-2.446250021E-1,8.215102848E-1
6.170891158E0,-5.714629889E-1,-6.763769984E-1,-1.705980003E-1,9.017535524E-1
6.175901929E0,-5.878000259E-1,-7.087339759E-1,-9.417799860E-2,9.255712909E-1
6.180912698E0,-5.564659834E-1,-7.068030238E-1,-2.634800039E-2,8.999550668E-1
6.185923542E0,-4.746840000E-1,-6.361349821E-1,6.264899671E-2,7.961893695E-1
6.190934328E0,-3.397330046E-1,-5.100899935E-1,1.522130072E-1,6.314896004E-1
6.195945326E0,-1.600690037E-1,-3.577040136E-1,2.757740021E-1,4.791925996E-1
6.200956097E0,1.050999970E-3,-2.175219953E-1,3.717460036E-1,4.307110566E-1
6.205966941E0,9.657199681E-2,-1.093330011E-1,3.675360084E-1,3.954270769E-1
6.210977712E0,1.757420003E-1,-2.603800036E-2,3.090730011E-1,3.564959301E-1
6.215988482E0,2.116319984E-1,2.537200041E-2,2.014269978E-1,2.932655394E-1
6.220999461E0,2.287179977E-1,5.583899841E-2,1.317719966E-1,2.698032159E-1
6.226010232E0,2.372159958E-1,5.811199918E-2,1.182499994E-2,2.445163874E-1
6.231021006E0,2.584100068E-1,3.453800082E-2,-1.512369961E-1,3.013987957E-1
6.236031775E0,2.870599926E-1,1.483100001E-2,-2.653239965E-1,3.911779915E-1
6.241042620E0,3.183400035E-1,-1.307300013E-2,-3.997229934E-1,5.111650737E-1
6.246053620E0,3.079090118E-1,-4.793300107E-2,-4.861139953E-1,5.774186944E-1
6.251064391E0,2.801899910E-1,-1.080159992E-1,-5.492699742E-1,6.259963193E-1
6.256075160E0,1.821610034E-1,-1.991740018E-1,-5.781670213E-1,6.380674092E-1
6.261086004E0,2.287000045E-2,-3.438079953E-1,-5.740079880E-1,6.694864784E-1
6.266096780E0,-1.613519937E-1,-4.603959918E-1,-5.344409943E-1,7.236201431E-1
6.271107550E0,-3.313370049E-1,-5.132939816E-1,-4.332379997E-1,7.489660117E-1
6.276118319E0,-4.675349891E-1,-5.336319804E-1,-2.637149990E-1,7.569000312E-1
6.281129321E0,-5.223960280E-1,-5.609539747E-1,-1.256989986E-1,7.767671531E-1
6.286140092E0,-4.957930148E-1,-6.085510254E-1,-4.467400163E-2,7.862193272E-1
6.291150965E0,-4.388990104E-1,-6.207200289E-1,-1.661599986E-2,7.603958095E-1
6.296161737E0,-3.878340125E-1,-5.720419884E-1,1.920500025E-2,6.913870766E-1
6.301172735E0,-3.035149872E-1,-4.557099938E-1,1.177200004E-1,5.600454843E-1
6.306183526E0,-1.520410031E-1,-3.144879937E-1,2.947019935E-1,4.570212575E-1
6.311194370E0,7.215999812E-2,-1.447319984E-1,4.551930130E-1,4.830684172E-1
6.316205141E0,2.892189920E-1,1.205699984E-2,5.407249928E-1,6.133323034E-1
6.321216149E0,4.563780129E-1,1.460009962E-1,5.452899933E-1,7.259051993E-1
6.326226920E0,5.738980174E-1,2.541919947E-1,4.367510080E-1,7.646724446E-1
6.331237671E0,6.089640260E-1,3.234510124E-1,3.200170100E-1,7.601767091E-1
6.336248440E0,5.781099796E-1,3.480170071E-1,2.013379931E-1,7.041760954E-1
6.341259284E0,5.320240259E-1,3.604550064E-1,1.510069966E-1,6.601367198E-1
6.346270045E0,5.012660027E-1,3.847509921E-1,1.041830033E-1,6.404334700E-1
6.351281043E0,5.483120084E-1,3.945580125E-1,6.028100103E-2,6.782004739E-1
6.356291815E0,5.989270210E-1,3.662709892E-1,2.174000023E-3,7.020489586E-1
6.361302570E0,5.578969717E-1,2.530809939E-1,-9.680700302E-2,6.202182006E-1
6.366313339E0,4.047909975E-1,7.720799744E-2,-2.483949959E-1,4.811620315E-1
6.371324178E0,1.984180063E-1,-1.176400036E-1,-3.954519928E-1,4.578112649E-1
6.376334950E0,-4.134900123E-2,-3.194560111E-1,-5.568910241E-1,6.433424404E-1
6.381345948E0,-2.673259974E-1,-5.317900181E-1,-7.985000014E-1,9.959247283E-1
6.386356728E0,-8.857340217E-1,-9.285259843E-1,-2.713282108E0,3.001430502E0
6.391367497E0,-1.668509007E0,-1.127711058E0,-4.838760853E0,5.241112585E0
6.396378341E0,-1.732862949E0,-1.229884982E0,-3.575042963E0,4.158889666E0
6.401389107E0,-1.641504049E0,-1.056890011E0,-2.249723911E0,2.978726190E0
6.406400105E0,-1.234096050E0,-6.631799936E-1,-5.555970073E-1,1.507145912E0
6.411410954E0,-7.946950197E-1,-3.097330034E-1,1.123198986E0,1.410337077E0
6.416421642E0,-5.040889978E-1,-3.485399857E-2,2.192868948E0,2.250332140E0
6.421432486E0,-2.748959959E-1,2.582930028E-1,2.642026901E0,2.668817946E0
6.426443276E0,-7.312600315E-2,4.908300042E-1,2.779364109E0,2.823318324E0
6.431454046E0,2.071820050E-1,6.704509854E-1,2.788758039E0,2.875691275E0
6.436465034E0,3.057140112E-1,6.470869780E-1,2.368125916E0,2.473904397E0
6.441475805E0,4.283620119E-1,5.824289918E-1,1.575868011E0,1.733804352E0
6.446486574E0,4.990789890E-1,4.719649851E-1,5.497400165E-1,8.797981986E-1
6.451497418E0,5.136420131E-1,3.440969884E-1,-4.302699864E-1,7.532351002E-1
6.456508418E0,4.974170029E-1,2.482070029E-1,-1.141152978E0,1.269354367E0
6.461519175E0,4.874030054E-1,1.555639952E-1,-1.749487042E0,1.822763495E0
