"Time (s)","Linear Acceleration x (m/s^2)","Linear Acceleration y (m/s^2)","Linear Acceleration z (m/s^2)","Absolute acceleration (m/s^2)"
2.666415700E-2,2.982060015E-1,2.390519977E-1,-1.281759024E0,1.337527148E0
3.167492700E-2,4.028019905E-1,4.194119871E-1,-1.272613049E0,1.399178269E0
3.668569600E-2,4.716140032E-1,6.170700192E-1,-1.083857059E0,1.333394654E0
4.169647500E-2,5.648149848E-1,7.789610028E-1,-9.403240085E-1,1.345364431E0
4.670747500E-2,6.557829976E-1,9.084420204E-1,-7.572510242E-1,1.352311857E0
5.171824600E-2,6.599119902E-1,9.129620194E-1,-5.788819790E-1,1.266525890E0
5.672901600E-2,6.537789702E-1,8.578289747E-1,-4.506640136E-1,1.168929230E0
6.173978500E-2,6.192129850E-1,8.134819865E-1,-4.465889931E-1,1.115625113E0
6.675054000E-2,4.780040085E-1,7.232310176E-1,-5.229830146E-1,1.012453540E0
7.176130900E-2,3.903450072E-1,5.725790262E-1,-4.075030088E-1,8.039121022E-1
7.677208700E-2,2.650060058E-1,4.112359881E-1,-3.845080137E-1,6.222456377E-1
8.178285600E-2,1.444990039E-1,2.367579937E-1,-4.373300076E-1,5.178724218E-1
8.679363000E-2,-6.988500059E-2,9.064400196E-2,-3.981589973E-1,4.142835207E-1
9.180439900E-2,-1.791010052E-1,-9.376099706E-2,-2.700990140E-1,3.373748242E-1
9.681516800E-2,-2.626670003E-1,-1.811330020E-1,-2.064410001E-1,3.800276358E-1
1.018259370E-1,-4.941320121E-1,-1.771859974E-1,-7.032199949E-2,5.296286498E-1
1.068367880E-1,-6.503180265E-1,-3.684169948E-1,1.716620028E-1,7.668849072E-1
1.118475590E-1,-5.407299995E-1,-4.145340025E-1,3.341909945E-1,7.588879973E-1
1.168583280E-1,-3.209489882E-1,-4.197880030E-1,5.053859949E-1,7.311943820E-1
1.218690830E-1,-8.662699908E-2,-3.809149861E-1,7.857260108E-1,8.774769670E-1
1.268798520E-1,9.404200315E-2,-3.329130113E-1,9.992190003E-1,1.057408900E0
1.318906020E-1,2.333209962E-1,-3.229109943E-1,1.265699029E0,1.326915306E0
1.369013710E-1,3.581100106E-1,-3.488470018E-1,1.513398051E0,1.593835209E0
1.419121400E-1,3.733290136E-1,-3.990879953E-1,1.742337942E0,1.826030472E0
1.469231390E-1,2.583940029E-1,-5.433419943E-1,2.093759060E0,2.178489152E0
1.519336790E-1,2.922230065E-1,-6.622629762E-1,2.395471096E0,2.502452459E0
1.569446860E-1,4.254670143E-1,-6.940780282E-1,2.441716909E0,2.573858573E0
1.619554570E-1,3.660460114E-1,-7.609390020E-1,2.464536905E0,2.605179457E0
1.669662320E-1,2.067780048E-1,-8.201739788E-1,2.418350935E0,2.562003853E0
1.719770010E-1,1.218909994E-1,-7.759850025E-1,2.231304884E0,2.365529883E0
1.769877700E-1,5.066699907E-2,-6.784369946E-1,1.927235961E0,2.043791171E0
1.819985340E-1,-7.239100337E-2,-5.823370218E-1,1.565883994E0,1.672228916E0
1.870093780E-1,-1.957080066E-1,-4.825519919E-1,1.166298985E0,1.277267150E0
1.920200830E-1,-2.863349915E-1,-3.701960146E-1,8.037999868E-1,9.301221616E-1
1.970309270E-1,-3.404319882E-1,-2.437980026E-1,4.509690106E-1,6.153896759E-1
2.020416790E-1,-3.555009961E-1,-1.336610019E-1,1.482740045E-1,4.077148539E-1
2.070524480E-1,-3.405370116E-1,-1.588599943E-2,-7.099600136E-2,3.482215580E-1
2.120632030E-1,-2.875919938E-1,9.566000104E-2,-2.476879954E-1,3.914196390E-1
2.170739720E-1,-2.119700015E-1,1.716009974E-1,-3.889980018E-1,4.750764457E-1
2.220847360E-1,-1.239439994E-1,1.995709985E-1,-5.068749785E-1,5.586706922E-1
2.270957340E-1,-3.132800013E-2,1.976580024E-1,-5.534960032E-1,5.885643168E-1
2.321065050E-1,6.597200036E-2,1.789249927E-1,-5.838459730E-1,6.142007636E-1
2.371172800E-1,1.540129930E-1,1.627089977E-1,-5.476250052E-1,5.916818117E-1
2.421280490E-1,2.242289931E-1,1.353379935E-1,-4.949280024E-1,5.599542315E-1
2.471388180E-1,5.563259721E-1,2.921899855E-1,-6.662549973E-1,9.158434889E-1
2.521495970E-1,5.335649848E-1,2.779290080E-1,-8.087249994E-1,1.007954489E0
2.571603670E-1,5.309000146E-3,-5.810200050E-2,-3.434770107E-1,3.483970219E-1
2.621711260E-1,1.062529981E-1,-9.845999628E-2,-5.340639949E-1,5.533610224E-1
2.671818950E-1,2.374839932E-1,-1.122120023E-1,-5.191590190E-1,5.818215083E-1
2.721926350E-1,3.497549891E-1,-6.556399912E-2,-6.313080192E-1,7.246909724E-1
2.772034040E-1,3.544259965E-1,-5.103800073E-2,-6.596170068E-1,7.505446424E-1
2.822141680E-1,3.742839992E-1,-1.704999991E-2,-6.808940172E-1,7.771717167E-1
2.872249370E-1,3.083919883E-1,1.911900006E-2,-6.183429956E-1,6.912446852E-1
2.922357970E-1,2.057069987E-1,3.861799836E-2,-5.149009824E-1,5.558144841E-1
2.972464920E-1,1.166689992E-1,4.158800095E-2,-4.303719997E-1,4.478406808E-1
3.022573500E-1,6.925199926E-2,4.240399972E-2,-3.480939865E-1,3.574400118E-1
3.072681210E-1,-1.152899954E-2,1.317500044E-2,-2.798300087E-1,2.803771251E-1
3.122788900E-1,-1.039140001E-1,-2.219700068E-2,-1.992390007E-1,2.258030240E-1
3.172896590E-1,-1.823830009E-1,-7.058800012E-2,-8.008199930E-2,2.113275925E-1
3.223004440E-1,-2.357130051E-1,-6.910199672E-2,-3.869999899E-3,2.456637613E-1
3.273112130E-1,-1.810240000E-1,-1.678549945E-1,1.296599954E-1,2.788488878E-1
3.323219820E-1,-7.433199883E-2,-2.316379994E-1,3.131859899E-1,3.965688756E-1
3.373329800E-1,7.344000041E-3,-3.286679983E-1,4.225519896E-1,5.353753555E-1
3.423437510E-1,8.898799866E-2,-4.390909970E-1,3.717679977E-1,5.821779897E-1
3.473545210E-1,1.193090007E-1,-5.552219748E-1,2.423799932E-1,6.174578043E-1
3.523652860E-1,1.294749975E-1,-6.116309762E-1,1.563709974E-1,6.444440355E-1
3.573760550E-1,1.034459993E-1,-6.006180048E-1,8.023200184E-2,6.147196406E-1
3.623868240E-1,7.892200351E-2,-5.334640145E-1,6.630999967E-3,5.393111417E-1
3.673975980E-1,3.204499930E-2,-4.490900040E-1,-5.968299881E-2,4.541704239E-1
3.724083670E-1,-1.603999920E-2,-3.319720030E-1,-8.055300266E-2,3.419816933E-1
3.774191360E-1,-3.517799824E-2,-2.065979987E-1,-6.808499992E-2,2.203537879E-1
3.824299050E-1,-1.008800045E-2,-7.802999765E-2,-8.946499974E-2,1.191403981E-1
3.874406740E-1,4.371700063E-2,-1.377199963E-2,-9.923800081E-2,1.093115956E-1
3.924514480E-1,2.507499978E-2,-3.260000085E-4,-1.114960015E-1,1.142813206E-1
3.974622930E-1,-2.459100075E-2,-2.958800085E-2,-1.117509976E-1,1.181882083E-1
4.024730640E-1,-1.088410020E-1,-8.157200366E-2,-1.022199988E-1,1.701448902E-1
4.074838480E-1,-2.053029984E-1,-1.418689936E-1,-8.042500168E-2,2.621913679E-1
4.124946180E-1,-2.575950027E-1,-1.707910001E-1,-3.934900090E-2,3.115655549E-1
4.175053870E-1,-2.925209999E-1,-2.041739970E-1,2.095700055E-2,3.573440252E-1
4.225161410E-1,-2.663539946E-1,-2.047639936E-1,1.194050014E-1,3.565533591E-1
4.275269100E-1,-1.826930046E-1,-1.804589927E-1,2.175389975E-1,3.365492496E-1
4.325376790E-1,-9.370899945E-2,-1.434340030E-1,2.842830122E-1,3.319209556E-1
4.375484430E-1,-2.465100028E-2,-1.403660029E-1,3.150329888E-1,3.457688109E-1
4.425592120E-1,4.620299861E-2,-1.538279951E-1,3.002879918E-1,3.405446331E-1
4.475699810E-1,1.237230003E-1,-1.876499951E-1,2.425100058E-1,3.306523921E-1
4.525809800E-1,1.796499938E-1,-2.132589966E-1,1.752420068E-1,3.293376396E-1
4.575915210E-1,1.937080026E-1,-2.263109982E-1,1.057500020E-1,3.161052374E-1
4.626025140E-1,1.691460013E-1,-2.363609970E-1,7.718200237E-2,3.007223838E-1
4.676132850E-1,1.229479983E-1,-1.995680034E-1,5.115599930E-2,2.399177662E-1
4.726240540E-1,1.018079966E-1,-1.569049954E-1,1.796600036E-2,1.879010988E-1
4.776348390E-1,1.116200015E-1,-6.459899992E-2,-2.502500080E-2,1.313708727E-1
4.826456080E-1,1.815730035E-1,8.071699739E-2,-1.116039976E-1,2.279022632E-1
4.876563670E-1,2.419179976E-1,2.355059981E-1,-1.269720048E-1,3.607066436E-1
4.926671360E-1,2.506879866E-1,3.599289954E-1,-9.488599747E-2,4.487724377E-1
4.976779810E-1,2.367749959E-1,4.409770072E-1,3.922000062E-3,5.005382119E-1
5.026887470E-1,2.336370051E-1,4.894039929E-1,1.097249985E-1,5.533010877E-1
5.076994390E-1,2.273119986E-1,4.666849971E-1,1.868200004E-1,5.516949735E-1
5.127102830E-1,1.925709993E-1,4.004189968E-1,2.760640085E-1,5.230968357E-1
5.177210410E-1,1.354079992E-1,2.918699980E-1,3.130249977E-1,4.488965038E-1
5.227318100E-1,4.985700175E-2,1.493169963E-1,3.289740086E-1,3.646987583E-1
5.277425640E-1,-1.191100013E-2,2.494500019E-2,3.334009945E-1,3.345449867E-1
5.327533330E-1,-5.062799901E-2,-5.858699977E-2,3.429110050E-1,3.515445750E-1
5.377641070E-1,-7.834400237E-2,-8.159500360E-2,3.884800076E-1,4.046136968E-1
5.427748760E-1,-1.020400003E-1,-6.923799962E-2,4.317559898E-1,4.490203748E-1
5.477856450E-1,-1.049820036E-1,-5.256000161E-2,3.865999877E-1,4.040338171E-1
5.527964190E-1,-1.316400021E-1,-7.576400042E-2,2.771050036E-1,3.160007230E-1
5.578074180E-1,-1.465580016E-1,-1.745640039E-1,7.948700339E-2,2.413918454E-1
5.628181890E-1,-8.791399747E-2,-2.396830022E-1,-1.538919955E-1,2.980932049E-1
5.678289450E-1,-7.252799720E-2,-2.764669955E-1,-4.134550095E-1,5.026324252E-1
5.728394830E-1,-2.142660022E-1,-3.279820085E-1,-5.361880064E-1,6.640630209E-1
5.778504950E-1,-2.308070064E-1,-2.803249955E-1,-5.849519968E-1,6.884931487E-1
5.828612660E-1,-1.446039975E-1,-1.880059987E-1,-5.577909946E-1,6.061248760E-1
5.878720410E-1,-5.353799835E-2,-5.468700081E-2,-5.002560019E-1,5.060761334E-1
5.928828100E-1,-3.636199981E-2,4.627000168E-2,-4.024919868E-1,4.067713209E-1
5.978935790E-1,-9.410000406E-3,1.113229990E-1,-3.050920069E-1,3.249038179E-1
6.029043620E-1,4.785500094E-2,1.576589942E-1,-2.176750004E-1,2.729997534E-1
6.079151320E-1,7.880800217E-2,1.787209958E-1,-1.137930006E-1,2.260547335E-1
6.129259010E-1,1.074849963E-1,1.775449961E-1,4.224999808E-3,2.075887779E-1
6.179367400E-1,1.671330035E-1,1.640789956E-1,1.316139996E-1,2.686588963E-1
6.229474340E-1,2.439769953E-1,1.227570027E-1,2.134789973E-1,3.466516094E-1
6.279582020E-1,2.895759940E-1,9.154400229E-2,2.858400047E-1,4.170600304E-1
6.329690480E-1,2.868340015E-1,4.716899991E-2,3.393220007E-1,4.468087725E-1
6.379798190E-1,2.672559917E-1,5.511499941E-2,3.905900121E-1,4.764703409E-1
6.429905930E-1,2.288829982E-1,6.285800040E-2,4.444580078E-1,5.038665258E-1
6.480013630E-1,1.904260069E-1,5.187600106E-2,4.554640055E-1,4.963875944E-1
6.530121320E-1,1.168899983E-1,-3.859999997E-4,4.046129882E-1,4.211592228E-1
6.580228910E-1,4.835100099E-2,-6.022199988E-2,3.253700137E-1,3.344101589E-1
6.630336600E-1,5.760000204E-4,-9.245599806E-2,2.319719940E-1,2.497187405E-1
6.680444290E-1,-4.807199910E-2,-1.093060002E-1,1.578949988E-1,1.979635053E-1
6.730551980E-1,-1.092460006E-1,-1.436900049E-1,9.362799674E-2,2.033413582E-1
6.780661970E-1,-1.825399995E-1,-1.648389995E-1,2.960800007E-2,2.477284417E-1
6.830769830E-1,-2.419919968E-1,-1.916940063E-1,-2.220599912E-2,3.095154680E-1
6.880877520E-1,-2.671090066E-1,-2.126179934E-1,-6.669399887E-2,3.478530178E-1
6.930985350E-1,-2.544769943E-1,-2.139710039E-1,-9.442900121E-2,3.456283660E-1
6.981093050E-1,-2.238350064E-1,-2.058459967E-1,-1.078850031E-1,3.226667915E-1
7.031200640E-1,-2.082310021E-1,-1.677580029E-1,-1.190750003E-1,2.927144572E-1
7.081308330E-1,-1.820009947E-1,-1.356409937E-1,-1.089069992E-1,2.517609496E-1
7.131416120E-1,-1.225600019E-1,-6.999900192E-2,-7.996500283E-2,1.622196536E-1
7.181523810E-1,-3.784099966E-2,1.176500041E-2,5.931000225E-3,4.006910598E-2
7.231631500E-1,5.548600107E-2,1.138340011E-1,8.414000273E-2,1.520408372E-1
7.281739530E-1,1.392170042E-1,1.984529942E-1,1.595640033E-1,2.902165335E-1
7.331847220E-1,1.655399948E-1,2.339099944E-1,1.870480031E-1,3.422051005E-1
7.381954860E-1,1.387750059E-1,2.171290070E-1,1.692470014E-1,3.082986465E-1
7.432063320E-1,1.024129987E-1,1.686179936E-1,8.713600039E-2,2.156690349E-1
7.482170980E-1,5.409200117E-2,9.634800255E-2,7.770000026E-3,1.107666696E-1
7.532278670E-1,2.632899955E-2,3.816600144E-2,-6.177499890E-2,7.723995321E-2
7.582386370E-1,-1.679899916E-2,1.705799997E-2,-1.096070036E-1,1.121912518E-1
7.632493960E-1,-6.831099838E-2,1.104599983E-2,-1.668770015E-1,1.806553078E-1
7.682601650E-1,-1.238180026E-1,8.028999902E-3,-1.785829961E-1,2.174563154E-1
7.732709340E-1,-1.627710015E-1,2.626699954E-2,-1.496440023E-1,2.226604626E-1
7.782817030E-1,-1.719010025E-1,4.646499828E-2,-1.064660028E-1,2.074703846E-1
7.832924720E-1,-1.636649966E-1,4.295900092E-2,-5.621400103E-2,1.783023297E-1
7.883032270E-1,-1.290300041E-1,2.328700013E-2,5.886000115E-3,1.312466051E-1
7.933142260E-1,-9.383100271E-2,-1.916900091E-2,7.034099847E-2,1.188257705E-1
7.983249970E-1,-5.073300004E-2,-3.277700022E-2,1.323059946E-1,1.454408651E-1
8.033355220E-1,3.969999962E-4,-3.242399916E-2,1.941449940E-1,1.968343264E-1
8.083462890E-1,6.860499829E-2,4.641000181E-3,2.701019943E-1,2.787171900E-1
8.133570770E-1,1.602869928E-1,6.793399900E-2,3.720299900E-1,4.107471993E-1
8.183680770E-1,2.474150062E-1,1.496150047E-1,4.640440047E-1,5.467501012E-1
8.233788330E-1,3.003529906E-1,2.121279985E-1,5.606560111E-1,6.704814461E-1
8.283896030E-1,3.182789981E-1,2.560830116E-1,5.902220011E-1,7.178036222E-1
8.334003720E-1,2.903989851E-1,2.447250038E-1,5.888100266E-1,7.006562249E-1
8.384111510E-1,2.388380021E-1,2.029269934E-1,5.780469775E-1,6.575418345E-1
8.434219200E-1,1.596760005E-1,1.245199963E-1,5.197529793E-1,5.578035623E-1
8.484326850E-1,6.305299699E-2,2.243999951E-2,4.116199911E-1,4.170254801E-1
8.534435290E-1,-1.826499961E-2,-9.804700315E-2,2.967050076E-1,3.130186680E-1
8.584542280E-1,-6.592400372E-2,-1.641329974E-1,1.700839996E-1,2.453857820E-1
8.634649950E-1,-7.618299872E-2,-1.912280023E-1,5.556200072E-2,2.132114774E-1
8.684758130E-1,-8.511199802E-2,-1.805219948E-1,-4.216599837E-2,2.039858187E-1
8.734865840E-1,-1.047160029E-1,-1.329430044E-1,-1.566659957E-1,2.306155196E-1
8.784973430E-1,-9.074400365E-2,-5.420999974E-2,-2.497799993E-1,2.712254529E-1
8.835081120E-1,-5.150099844E-2,3.149000183E-2,-3.168050051E-1,3.225048593E-1
8.885188920E-1,-2.735600062E-2,1.007739976E-1,-3.768270016E-1,3.910272861E-1
8.935296610E-1,-1.352300029E-2,1.657389998E-1,-4.082950056E-1,4.408595005E-1
8.985404250E-1,6.316000130E-3,2.150360048E-1,-4.279429913E-1,4.789734637E-1
9.035511940E-1,3.385800123E-2,2.309249938E-1,-4.524700046E-1,5.091186718E-1
9.085619490E-1,5.242300034E-2,2.262160033E-1,-4.674609900E-1,5.219594124E-1
9.135727180E-1,5.496500060E-2,2.087029964E-1,-4.417670071E-1,4.916667373E-1
9.185834870E-1,7.666700333E-2,1.743779927E-1,-4.040969908E-1,4.467436533E-1
9.235942450E-1,9.106399864E-2,1.075149998E-1,-3.567939997E-1,3.836066804E-1
9.286052440E-1,7.050699741E-2,4.397799820E-2,-2.686829865E-1,2.812398411E-1
9.336157750E-1,3.938600048E-2,1.905999961E-3,-1.350139976E-1,1.406544326E-1
9.386265420E-1,-5.044599995E-2,-2.661300078E-2,7.300499827E-2,9.264329708E-2
9.436375420E-1,-1.271770000E-1,-7.947099954E-2,2.453269958E-1,2.875325442E-1
9.486483280E-1,-1.745650023E-1,-1.330929995E-1,4.249770045E-1,4.783222145E-1
9.536590970E-1,-1.930440068E-1,-1.970189959E-1,5.832189918E-1,6.451564660E-1
9.586699420E-1,-1.942480057E-1,-2.364600003E-1,7.032529712E-1,7.669487342E-1
9.636806940E-1,-1.572359949E-1,-2.592180073E-1,7.993659973E-1,8.549287287E-1
9.686913860E-1,-1.148120016E-1,-2.450039983E-1,8.475800157E-1,8.897194152E-1
9.737021530E-1,-6.900800020E-2,-2.577689886E-1,8.407729864E-1,8.821032651E-1
9.787129230E-1,-4.050200060E-2,-2.712390125E-1,7.885559797E-1,8.348841519E-1
9.837236920E-1,-4.042899981E-2,-2.831490040E-1,6.765990257E-1,7.345706937E-1
9.887344570E-1,-5.207800120E-2,-2.890149951E-1,5.288059711E-1,6.048781205E-1
9.937452260E-1,-7.562199980E-2,-2.867670059E-1,3.738630116E-1,4.772080825E-1
9.987559720E-1,-9.942299873E-2,-2.533929944E-1,2.188629955E-1,3.492763277E-1
1.003766742E0,-1.236850023E-1,-2.012979984E-1,3.505599871E-2,2.388467857E-1
1.008777512E0,-1.349190027E-1,-1.168849990E-1,-1.154389977E-1,2.125826956E-1
1.013788384E0,-1.383509934E-1,-3.817199916E-2,-2.541579902E-1,2.918807683E-1
1.018799079E0,-9.506700188E-2,2.607299946E-2,-3.811309934E-1,3.936729229E-1
1.023809919E0,-2.333799936E-2,1.044519991E-1,-4.844869971E-1,4.961678473E-1
1.028820690E0,5.219599977E-2,1.851550043E-1,-5.403209925E-1,5.735447436E-1
1.033831459E0,1.241870001E-1,2.546879947E-1,-5.701169968E-1,6.366488637E-1
1.038842242E0,1.717520058E-1,3.206009865E-1,-5.594469905E-1,6.672815592E-1
1.043853011E0,2.164350003E-1,3.649519980E-1,-5.369420052E-1,6.843542848E-1
1.048863780E0,2.073960006E-1,3.817810118E-1,-5.048210025E-1,6.660436071E-1
1.053874559E0,1.300950050E-1,3.559249938E-1,-4.102280140E-1,5.584750084E-1
1.058885328E0,2.629799955E-2,3.003219962E-1,-2.889539897E-1,4.175874691E-1
1.063896106E0,-8.430500329E-2,1.949329972E-1,-2.079010010E-1,2.972020074E-1
1.068907105E0,-1.434420049E-1,7.568199933E-2,-1.145190001E-1,1.985396060E-1
1.073917655E0,-1.435990036E-1,-4.344199970E-2,-4.153000191E-3,1.500837385E-1
1.078928653E0,-1.162519976E-1,-1.048329994E-1,9.912800044E-2,1.852858473E-1
1.083939424E0,-8.490800112E-2,-1.361159980E-1,2.239899933E-1,2.755148829E-1
1.088950194E0,-6.316900253E-2,-1.593099982E-1,3.082349896E-1,3.526737972E-1
1.093960963E0,-5.731799826E-2,-1.794459969E-1,3.399350047E-1,3.886412564E-1
1.098971732E0,-7.625199854E-2,-2.039690018E-1,3.765409887E-1,4.349722257E-1
1.103982505E0,-1.028750017E-1,-2.004079968E-1,3.869000077E-1,4.477033026E-1
1.108993275E0,-1.232500002E-1,-1.675740033E-1,3.876619935E-1,4.399470768E-1
1.114004040E0,-1.237440035E-1,-1.388469934E-1,3.620409966E-1,4.070193474E-1
1.119014809E0,-9.799999744E-2,-9.816800058E-2,3.243010044E-1,3.527209907E-1
1.124025563E0,-5.613100156E-2,-2.970400080E-2,2.719529867E-1,2.792694827E-1
1.129036332E0,8.558000438E-3,4.964200035E-2,2.241020054E-1,2.296938754E-1
1.134047101E0,7.676500082E-2,1.235280037E-1,1.376940012E-1,2.002789830E-1
1.139057946E0,1.553249955E-1,1.945690066E-1,2.469299920E-2,2.501853248E-1
1.144068712E0,2.205930054E-1,2.445430011E-1,-8.849699795E-2,3.410194599E-1
1.149079482E0,2.773660123E-1,3.113400042E-1,-1.875379980E-1,4.572034598E-1
1.154090266E0,3.022949994E-1,3.459739983E-1,-2.603439987E-1,5.280712753E-1
1.159101035E0,2.631709874E-1,3.517400026E-1,-3.283239901E-1,5.484310718E-1
1.164111804E0,1.845999956E-1,3.134799898E-1,-3.937410116E-1,5.360772767E-1
1.169122587E0,9.978699684E-2,2.279749960E-1,-4.254190028E-1,4.928603975E-1
1.174133356E0,1.114500035E-2,1.199999973E-1,-4.496429861E-1,4.655137219E-1
1.179144125E0,-6.507100165E-2,1.803800091E-2,-4.162049890E-1,4.216470059E-1
1.184154899E0,-1.058679968E-1,-4.545599967E-2,-3.682900071E-1,3.858909302E-1
1.189165668E0,-1.189609990E-1,-1.157170013E-1,-3.106999993E-1,3.522451323E-1
1.194176437E0,-1.073480025E-1,-1.462589949E-1,-2.172220051E-1,2.830206472E-1
1.199187461E0,-7.351099700E-2,-1.822929978E-1,-1.404830068E-1,2.415990044E-1
1.204198232E0,-7.092499733E-2,-2.258020043E-1,-7.079999894E-2,2.470415760E-1
1.209208765E0,-8.671399951E-2,-2.533180118E-1,-2.011200041E-2,2.685029336E-1
1.214219533E0,-1.341730058E-1,-2.793180048E-1,2.360000089E-2,3.107698559E-1
1.219230533E0,-1.800799966E-1,-3.108510077E-1,5.555099994E-2,3.635148797E-1
1.224241304E0,-2.248200029E-1,-3.131229877E-1,1.091530025E-1,4.006300252E-1
1.229252073E0,-2.662540078E-1,-3.127380013E-1,1.460919976E-1,4.359347726E-1
1.234262837E0,-2.789880037E-1,-2.960920036E-1,2.093430012E-1,4.575251610E-1
1.239273607E0,-2.684629858E-1,-2.522110045E-1,2.533349991E-1,4.470585949E-1
1.244284371E0,-2.260259986E-1,-1.844239980E-1,3.425549865E-1,4.499376422E-1
1.249295140E0,-1.685879976E-1,-1.165959984E-1,3.932389915E-1,4.434562483E-1
1.254305909E0,-1.171379983E-1,-5.598099902E-2,4.460870028E-1,4.645953045E-1
1.259316462E0,-6.159099936E-2,-3.487199917E-2,4.557459950E-1,4.612091928E-1
1.264327460E0,1.005700044E-2,-1.064999960E-3,4.437179863E-1,4.438332219E-1
1.269338231E0,6.299500167E-2,3.830699995E-2,3.885279894E-1,3.954614963E-1
1.274349000E0,8.141999692E-2,5.517600104E-2,3.165900111E-1,3.315159757E-1
1.279359775E0,8.700200170E-2,7.116100192E-2,2.422740012E-1,2.670766335E-1
1.284370544E0,8.441399783E-2,8.632799983E-2,1.105410010E-1,1.636996013E-1
1.289381313E0,8.968599886E-2,1.053349972E-1,-2.361699939E-2,1.403452980E-1
1.294392157E0,7.424300164E-2,1.192089990E-1,-1.960449964E-1,2.411564831E-1
1.299402929E0,4.750600085E-2,1.445000023E-1,-3.325830102E-1,3.657164604E-1
1.304413698E0,2.430999884E-3,1.716299951E-1,-4.380089939E-1,4.704409035E-1
1.309424467E0,-5.874799937E-2,1.797370017E-1,-4.835669994E-1,5.192241906E-1
1.314435159E0,-1.171780005E-1,1.833039969E-1,-4.836220145E-1,5.303030191E-1
1.319445927E0,-1.386040002E-1,1.778970063E-1,-4.501999915E-1,5.035260133E-1
1.324456773E0,-1.124589965E-1,1.845660061E-1,-3.953729868E-1,4.505900966E-1
1.329467549E0,-4.237300158E-2,1.866610050E-1,-3.024480045E-1,3.579282016E-1
1.334478318E0,4.713099822E-2,2.052730024E-1,-2.049829960E-1,2.938985627E-1
1.339489097E0,1.395439953E-1,1.862899959E-1,-8.853399754E-2,2.490276248E-1
1.344499867E0,2.258390039E-1,1.910399944E-1,5.166900158E-2,3.002819023E-1
1.349510636E0,2.765159905E-1,1.932480037E-1,1.774349958E-1,3.811680229E-1
1.354521390E0,2.974930108E-1,1.672129929E-1,2.936550081E-1,4.502172145E-1
1.359532388E0,2.597979903E-1,1.204349995E-1,4.267689884E-1,5.139371112E-1
1.364543159E0,1.794379950E-1,3.736900166E-2,5.194839835E-1,5.508702619E-1
1.369553684E0,6.953699887E-2,-3.712499887E-2,6.052970290E-1,6.104081856E-1
1.374564451E0,-1.270200033E-2,-1.008770019E-1,6.530590057E-1,6.609263010E-1
1.379575436E0,-6.284400076E-2,-1.471109986E-1,6.722970009E-1,6.910674871E-1
1.384585977E0,-7.673799992E-2,-1.668429971E-1,6.126890182E-1,6.396195271E-1
1.389596961E0,-6.943099946E-2,-2.001850009E-1,5.125330091E-1,5.546032669E-1
1.394607732E0,-3.702500090E-2,-1.975969970E-1,3.813180029E-1,4.310670984E-1
1.399618501E0,5.373000167E-3,-1.553699970E-1,2.380840033E-1,2.843460880E-1
1.404629260E0,-3.402000060E-3,-1.000349969E-1,8.285699785E-2,1.299378940E-1
1.409640030E0,-3.916500136E-2,-5.748799816E-2,-4.842999950E-2,8.475984967E-2
1.414650799E0,-7.144299895E-2,-1.566199958E-2,-1.725420058E-1,1.874036928E-1
1.419661568E0,-8.895300329E-2,1.376899984E-2,-2.918789983E-1,3.054432382E-1
1.424672337E0,-9.968300164E-2,3.580699861E-2,-3.801369965E-1,3.946175086E-1
1.429683087E0,-9.275399894E-2,6.904300302E-2,-4.134689867E-1,4.293330218E-1
1.434693856E0,-6.470900029E-2,1.106650010E-1,-4.039280117E-1,4.237827695E-1
1.439704630E0,-3.278800100E-2,1.533019990E-1,-3.324069977E-1,3.675200240E-1
1.444715399E0,3.096999973E-2,1.944700032E-1,-2.300460041E-1,3.028182409E-1
1.449726158E0,1.052659974E-1,2.504760027E-1,-1.112139970E-1,2.935774366E-1
1.454736927E0,1.671479940E-1,2.722960114E-1,1.704400033E-2,3.199594782E-1
1.459747701E0,1.944289953E-1,2.514050007E-1,1.237680018E-1,3.410654290E-1
1.464758470E0,2.049569935E-1,1.938160062E-1,2.258380055E-1,3.613513777E-1
1.469769211E0,1.996240020E-1,1.285129935E-1,2.778330147E-1,3.654538490E-1
1.474779981E0,1.721370071E-1,8.145900071E-2,2.773610055E-1,3.364459027E-1
1.479790826E0,1.789679974E-1,2.191600017E-2,2.459439933E-1,3.049562313E-1
1.484801525E0,1.515090019E-1,-3.128000069E-3,2.242259979E-1,2.706327034E-1
1.489812293E0,1.091070026E-1,-3.652900085E-2,2.194039971E-1,2.477434557E-1
1.494823153E0,4.935399815E-2,-8.040399849E-2,2.027769983E-1,2.236495722E-1
1.499833924E0,-2.738000080E-2,-1.067290008E-1,2.269549966E-1,2.522881577E-1
1.504844693E0,-1.136519983E-1,-1.533180028E-1,2.249719948E-1,2.950179404E-1
1.509855462E0,-1.859939992E-1,-1.985809952E-1,1.824669987E-1,3.276009539E-1
1.514866232E0,-2.215059996E-1,-2.404289991E-1,1.472479999E-1,3.585428634E-1
1.519877006E0,-2.190960050E-1,-2.650780082E-1,1.096630022E-1,3.609645188E-1
1.524887775E0,-1.915210038E-1,-2.499870062E-1,9.352000058E-2,3.285114742E-1
1.529898549E0,-1.582300067E-1,-2.103040069E-1,7.242500037E-2,2.729649996E-1
1.534909318E0,-1.196309999E-1,-1.538009942E-1,3.674900159E-2,1.982846717E-1
1.539920092E0,-1.130940020E-1,-9.256800264E-2,-1.109800022E-2,1.465682572E-1
1.544931091E0,-1.331489980E-1,-4.300099984E-2,-1.124900021E-2,1.403719405E-1
1.549941862E0,-1.534949988E-1,-1.174999960E-2,5.228000227E-3,1.540328184E-1
1.554952396E0,-1.693679988E-1,4.050999880E-3,2.401199937E-2,1.711096308E-1
1.559963394E0,-1.505039930E-1,4.842000082E-3,5.468200147E-2,1.602030529E-1
1.564974165E0,-1.276900023E-1,-2.982199937E-2,8.297099918E-2,1.551717598E-1
1.569984948E0,-9.595499933E-2,-8.264599741E-2,8.738800138E-2,1.538648289E-1
1.574995717E0,-4.136199877E-2,-1.412110031E-1,5.599199980E-2,1.574371823E-1
1.580006487E0,1.945099980E-2,-1.543249935E-1,2.696800046E-2,1.578664564E-1
1.585017271E0,8.639600128E-2,-1.487870067E-1,-1.168099977E-2,1.724479289E-1
1.590028040E0,1.590899974E-1,-1.274590045E-1,-8.152999729E-2,2.195508268E-1
1.595038884E0,2.023990005E-1,-7.469200343E-2,-1.323850006E-1,2.531206020E-1
1.600049674E0,2.331860065E-1,-5.384999793E-3,-2.097389996E-1,3.136800278E-1
1.605060367E0,2.239059955E-1,6.600999832E-2,-2.920320034E-1,3.738634854E-1
1.610071119E0,2.077070028E-1,1.509770006E-1,-3.745090067E-1,4.540850689E-1
1.615081888E0,1.935099959E-1,2.583310008E-1,-4.763660133E-1,5.754177640E-1
1.620092658E0,1.572380066E-1,3.272359967E-1,-5.424559712E-1,6.527370596E-1
1.625103427E0,9.461600333E-2,3.242819905E-1,-5.821740031E-1,6.730806544E-1
1.630114196E0,-1.219299994E-2,2.404700071E-1,-6.096820235E-1,6.555048919E-1
1.635124951E0,-1.151819974E-1,1.413950026E-1,-6.201519966E-1,6.464115858E-1
1.640135721E0,-1.980410069E-1,-6.866000127E-3,-5.823869705E-1,6.151763697E-1
1.645146491E0,-2.377929986E-1,-1.653590053E-1,-5.179129839E-1,5.933995026E-1
1.650157275E0,-2.725149989E-1,-2.989430130E-1,-3.980590105E-1,5.675229735E-1
1.655168119E0,-2.600939870E-1,-3.781479895E-1,-2.588140070E-1,5.269055649E-1
1.660178885E0,-2.409429997E-1,-4.207850099E-1,-1.241559982E-1,5.005279868E-1
1.665189655E0,-1.869969964E-1,-4.256420135E-1,-1.090000011E-2,4.650352786E-1
1.670200434E0,-1.407299936E-1,-3.960070014E-1,9.287499636E-2,4.304093879E-1
1.675211203E0,-9.469199926E-2,-3.517920077E-1,2.086649984E-1,4.198395800E-1
1.680221972E0,-3.479500115E-2,-2.915489972E-1,4.153729975E-1,5.086710498E-1
1.685232727E0,6.721500307E-2,-1.911990047E-1,7.750610113E-1,8.011207695E-1
1.690243496E0,1.227649972E-1,-1.007800028E-1,9.407659769E-1,9.540799111E-1
1.695254265E0,1.918810010E-1,-2.011799999E-2,9.675260186E-1,9.865747053E-1
1.700265034E0,2.369109988E-1,5.318100005E-2,9.390820265E-1,9.699639646E-1
1.705275827E0,2.715820074E-1,1.143620014E-1,8.697850108E-1,9.183471126E-1
1.710286596E0,3.116990030E-1,1.682659984E-1,7.189589739E-1,8.014809547E-1
1.715297365E0,3.191669881E-1,1.919810027E-1,5.321369767E-1,6.495337048E-1
1.720308125E0,2.756690085E-1,2.212170064E-1,3.452000022E-1,4.940581015E-1
1.725318895E0,1.983679980E-1,2.258040011E-1,1.797470003E-1,3.502089286E-1
1.730329650E0,1.204539984E-1,2.274720073E-1,2.861499973E-2,2.589816558E-1
1.735340649E0,4.638199881E-2,2.194730043E-1,-8.423600346E-2,2.396150949E-1
1.740351189E0,-3.341799974E-2,2.092570066E-1,-1.587879956E-1,2.647997075E-1
1.745361967E0,-7.489400357E-2,2.154289931E-1,-2.190009952E-1,3.161964559E-1
1.750372967E0,-7.237499952E-2,2.424010038E-1,-2.672930062E-1,3.680243720E-1
1.755383738E0,-5.725499988E-2,2.432440072E-1,-3.012090027E-1,3.913727704E-1
1.760394507E0,-6.459400058E-2,2.026499957E-1,-3.278360069E-1,3.907887576E-1
1.765405276E0,-6.807500124E-2,1.499930024E-1,-3.255969882E-1,3.648910869E-1
1.770416041E0,-7.454100251E-2,1.226359978E-1,-2.921620011E-1,3.255066573E-1
1.775426810E0,-6.524100155E-2,9.671399742E-2,-2.179519981E-1,2.472105561E-1
1.780437569E0,-5.213300139E-2,9.722699970E-2,-1.150190011E-1,1.593747468E-1
1.785448338E0,-2.341699973E-2,1.093130037E-1,4.641000181E-3,1.118893540E-1
1.790459107E0,3.706499934E-2,1.416669935E-1,1.409800053E-1,2.032700497E-1
1.795469862E0,1.054940000E-1,1.773750037E-1,2.556999922E-1,3.285930035E-1
1.800480631E0,2.215700001E-1,2.071090043E-1,3.416489959E-1,4.568494730E-1
1.805491390E0,3.354640007E-1,2.518599927E-1,4.251219928E-1,5.972422126E-1
1.810502159E0,3.800109923E-1,2.554090023E-1,4.702950120E-1,6.563684263E-1
1.815512947E0,3.455379903E-1,2.493049949E-1,4.795710146E-1,6.415121521E-1
1.820523716E0,3.014450073E-1,2.384379953E-1,4.625189900E-1,6.013697583E-1
1.825534485E0,2.128980011E-1,2.183150053E-1,4.287129939E-1,5.261005907E-1
1.830545264E0,1.180690005E-1,1.637459993E-1,3.614659905E-1,4.140177575E-1
1.835556034E0,9.916000068E-3,7.590699941E-2,2.752009928E-1,2.856497612E-1
1.840566789E0,-9.507399797E-2,-4.641399905E-2,1.771699935E-1,2.063553513E-1
1.845577559E0,-1.645389944E-1,-1.508660018E-1,1.080539972E-1,2.480106802E-1
1.850588384E0,-2.272969931E-1,-2.078530043E-1,5.580399930E-2,3.130189784E-1
1.855599079E0,-2.464960068E-1,-2.397029996E-1,-5.931000225E-3,3.438793192E-1
1.860609933E0,-2.513569891E-1,-2.402530015E-1,-4.370800033E-2,3.504457590E-1
1.865620704E0,-2.448009998E-1,-2.384119928E-1,-1.053939983E-1,3.575971234E-1
1.870631473E0,-2.248229980E-1,-2.250780016E-1,-1.264120042E-1,3.423236511E-1
1.875642252E0,-2.105350047E-1,-1.913210005E-1,-1.235570014E-1,3.101532621E-1
1.880653021E0,-1.670320034E-1,-1.657889932E-1,-1.207550019E-1,2.645136120E-1
1.885663713E0,-9.791100025E-2,-1.183459982E-1,-5.107399821E-2,1.618668977E-1
1.890674471E0,-2.725400031E-2,-6.842999905E-2,6.871099770E-2,1.007305639E-1
1.895685241E0,3.147999942E-2,-6.876000203E-3,2.050720006E-1,2.075880420E-1
1.900696091E0,9.825199842E-2,5.441400036E-2,3.077610135E-1,3.276143771E-1
1.905706862E0,1.619690061E-1,5.767399818E-2,3.123059869E-1,3.565042474E-1
1.910717641E0,1.534090042E-1,3.043399937E-2,2.570649981E-1,3.009035795E-1
1.915728410E0,9.792499989E-2,-2.373399958E-2,1.780000031E-1,2.045399947E-1
1.920739180E0,1.974499971E-2,-7.117400318E-2,6.076300144E-2,9.564385023E-2
1.925749949E0,-6.716500223E-2,-1.304399967E-1,-5.392500013E-2,1.563126224E-1
1.930760718E0,-1.516479999E-1,-1.593430042E-1,-1.278260052E-1,2.544146153E-1
1.935771487E0,-2.155950069E-1,-1.913589984E-1,-1.681050062E-1,3.337046095E-1
1.940782246E0,-2.506110072E-1,-2.103099972E-1,-1.484709978E-1,3.592767861E-1
1.945793015E0,-2.273160070E-1,-1.936769933E-1,-8.816500008E-2,3.113782459E-1
1.950803799E0,-1.750109941E-1,-1.519750059E-1,-3.271999955E-2,2.340851316E-1
1.955814568E0,-1.014650017E-1,-8.384499699E-2,1.778200082E-2,1.328206672E-1
1.960825567E0,-3.737099841E-2,-6.347999908E-3,5.852799863E-2,6.973102070E-2
1.965836329E0,1.070099976E-2,6.392700225E-2,7.517299801E-2,9.925801047E-2
1.970847098E0,3.637399897E-2,1.224460006E-1,8.687900007E-2,1.544799389E-1
1.975857877E0,5.441199988E-2,1.650740057E-1,7.455100119E-2,1.891241520E-1
1.980868646E0,8.128699660E-2,2.040739954E-1,5.735500157E-2,2.270316445E-1
1.985879421E0,8.654399961E-2,2.325219959E-1,4.249100015E-2,2.517177537E-1
1.990889959E0,9.161599725E-2,2.531679869E-1,8.023399860E-2,2.809359626E-1
1.995900957E0,7.580100000E-2,2.546409965E-1,1.155899987E-1,2.897393250E-1
2.000911747E0,6.078600138E-2,2.469259948E-1,1.461929977E-1,2.933253781E-1
2.005922517E0,6.519199908E-2,2.487960011E-1,1.911610067E-1,3.204558899E-1
2.010933281E0,9.565100074E-2,2.530130148E-1,2.289530039E-1,3.543785795E-1
2.015944050E0,1.374019980E-1,2.550500035E-1,2.619780004E-1,3.905922248E-1
2.020954809E0,1.250009984E-1,2.223509997E-1,2.735449970E-1,3.740214994E-1
2.025965579E0,6.445600092E-2,1.861830056E-1,3.402349949E-1,3.931647738E-1
2.030976348E0,-8.039599657E-2,1.394499987E-1,4.333409965E-1,4.622707407E-1
2.035987127E0,-2.421050072E-1,8.236599714E-2,4.882729948E-1,5.511891775E-1
2.040997896E0,-3.786939979E-1,-2.914099954E-2,5.051259995E-1,6.319894122E-1
2.046008665E0,-4.725030065E-1,-1.261689961E-1,5.125939846E-1,7.084703944E-1
2.051019519E0,-4.945699871E-1,-2.140610069E-1,5.584970117E-1,7.761059843E-1
2.056030213E0,-4.373199940E-1,-3.000180125E-1,5.303540230E-1,7.500233161E-1
2.061040971E0,-3.330770135E-1,-4.141809940E-1,4.329929948E-1,6.855429427E-1
2.066051741E0,-1.646839976E-1,-4.604719877E-1,3.069419861E-1,5.773808564E-1
2.071062587E0,5.684600025E-2,-4.083139896E-1,2.261659950E-1,4.702157368E-1
2.076073358E0,2.787500024E-1,-2.537539899E-1,1.665170044E-1,4.120929070E-1
2.081084050E0,4.658980072E-1,-7.172600180E-2,1.016400009E-1,4.822201387E-1
2.086094889E0,5.376179814E-1,6.256999820E-2,1.013899967E-2,5.413417571E-1
2.091105584E0,5.112299919E-1,1.273140013E-1,-9.824399650E-2,5.359261539E-1
2.096116346E0,4.060170054E-1,1.570599973E-1,-1.707829982E-1,4.676371285E-1
2.101127115E0,2.755669951E-1,1.737599969E-1,-2.194200009E-1,3.927783626E-1
2.106137875E0,1.226219982E-1,1.940760016E-1,-2.513459921E-1,3.404063110E-1
2.111148645E0,-3.621000051E-2,1.877329946E-1,-2.282299995E-1,2.977310432E-1
2.116159491E0,-1.683669984E-1,1.463260055E-1,-1.571850032E-1,2.728843551E-1
2.121170271E0,-2.465520054E-1,6.865400076E-2,-9.079500288E-2,2.715602985E-1
2.126181040E0,-2.580069900E-1,-1.150299981E-2,-1.469200011E-2,2.586808473E-1
2.131191820E0,-2.225639969E-1,-9.378799796E-2,5.198999867E-2,2.470503618E-1
2.136202589E0,-1.707800031E-1,-1.777790040E-1,4.944999889E-2,2.514288887E-1
2.141213358E0,-1.140730008E-1,-2.606160045E-1,1.839300059E-2,2.850818370E-1
2.146224131E0,-4.318200052E-2,-3.024379909E-1,-5.797899887E-2,3.109581770E-1
2.151234900E0,1.353100035E-2,-2.833110094E-1,-1.438570023E-1,3.180299563E-1
2.156245669E0,3.065500036E-2,-2.536509931E-1,-2.248930037E-1,3.403754081E-1
2.161256458E0,3.455900028E-2,-2.091590017E-1,-3.035050035E-1,3.702122359E-1
2.166267227E0,6.915500015E-2,-1.411900073E-1,-3.941040039E-1,4.243053124E-1
2.171277981E0,1.191909984E-1,-5.530799925E-2,-4.704149961E-1,4.884216800E-1
2.176288750E0,1.767739952E-1,5.478699878E-2,-5.253130198E-1,5.569599890E-1
2.181299519E0,2.366649956E-1,1.672240049E-1,-5.205309987E-1,5.957572564E-1
2.186310293E0,2.774989903E-1,2.653459907E-1,-5.182759762E-1,6.449993580E-1
2.191321063E0,3.296949863E-1,3.403050005E-1,-5.543919802E-1,7.292850918E-1
2.196331833E0,6.644780040E-1,4.276160002E-1,-9.016460180E-1,1.198896160E0
2.201342612E0,2.772949934E-1,3.069089949E-1,-9.231640100E-1,1.011591535E0
2.206353381E0,-2.759909928E-1,1.533000022E-1,-6.046429873E-1,6.821034092E-1
2.211364379E0,-2.729699910E-1,8.176299930E-2,-4.223259985E-1,5.094674210E-1
2.216374920E0,-9.136100113E-2,1.433199942E-1,-3.142130077E-1,3.572355910E-1
2.221385918E0,-1.513299998E-2,1.664749980E-1,-1.797740012E-1,2.454824315E-1
2.226396458E0,3.165600076E-2,1.240139976E-1,-4.523500055E-2,1.357489568E-1
2.231407456E0,1.071090028E-1,8.970800042E-2,8.042000234E-3,1.399447662E-1
2.236417997E0,1.265089959E-1,4.701400176E-2,7.817299664E-2,1.559674960E-1
2.241428995E0,8.234199882E-2,1.218200009E-2,1.435730010E-1,1.659572611E-1
2.246439776E0,2.269999968E-4,-6.368199736E-2,1.755940020E-1,1.867851757E-1
2.251450545E0,-1.321710050E-1,-1.444219947E-1,1.790100038E-1,2.652762119E-1
2.256461098E0,-2.434840053E-1,-2.391269952E-1,1.610450000E-1,3.773614616E-1
2.261471865E0,-3.226839900E-1,-3.032569885E-1,1.264500022E-1,4.605207504E-1
2.266482634E0,-3.499790132E-1,-3.353900015E-1,1.158690006E-1,4.983948115E-1
2.271493394E0,-3.480480015E-1,-3.157190084E-1,1.172320023E-1,4.843131694E-1
2.276504164E0,-3.086679876E-1,-2.574689984E-1,1.472029984E-1,4.280594987E-1
2.281514933E0,-2.585760057E-1,-1.989849955E-1,1.961970031E-1,3.807227905E-1
2.286525937E0,-2.051170021E-1,-1.335320026E-1,2.450260073E-1,3.463257491E-1
2.291536708E0,-1.227699965E-1,-8.217599988E-2,2.793659866E-1,3.160232926E-1
2.296547477E0,6.273000035E-3,-1.660699956E-2,3.350839913E-1,3.355539065E-1
2.301558247E0,1.390250027E-1,3.474000096E-2,3.786970079E-1,4.049027573E-1
2.306569016E0,2.080730051E-1,6.300000101E-2,4.461359978E-1,4.962869171E-1
2.311579795E0,2.157090008E-1,7.117699832E-2,4.776020050E-1,5.288669146E-1
2.316590564E0,1.663369983E-1,5.749199912E-2,4.659389853E-1,4.980687353E-1
2.321601333E0,1.220180020E-1,3.209200129E-2,4.087989926E-1,4.278257890E-1
2.326612083E0,6.391400099E-2,-2.549299970E-2,3.134459853E-1,3.209100782E-1
2.331622852E0,-9.820000269E-4,-7.928399742E-2,1.822859943E-1,1.987840544E-1
2.336633621E0,-1.465700008E-2,-1.154550016E-1,8.948200196E-2,1.468050194E-1
2.341644390E0,-2.338900045E-2,-1.205969974E-1,3.854000010E-3,1.229045746E-1
2.346655159E0,-2.282999922E-3,-1.212370023E-1,-7.699000090E-2,1.436352431E-1
2.351665928E0,1.956599951E-2,-1.036640033E-1,-1.100329980E-1,1.524346239E-1
2.356676682E0,2.107599936E-2,-6.850100309E-2,-1.192670017E-1,1.391445395E-1
2.361687528E0,1.005399972E-2,-3.024600074E-2,-1.142849997E-1,1.186463848E-1
2.366698204E0,-3.382400051E-2,4.143999889E-3,-1.022569984E-1,1.077855717E-1
2.371708971E0,-7.012800127E-2,2.076499909E-2,-7.596600056E-2,1.054511972E-1
2.376719740E0,-8.522400260E-2,3.645500168E-2,-4.735999927E-2,1.040916293E-1
2.381730591E0,-5.643599853E-2,5.361200124E-2,-1.403400023E-2,7.909628164E-2
2.386741363E0,-5.783999804E-3,5.365300179E-2,3.124500066E-2,6.235663013E-2
2.391752055E0,1.537800021E-2,3.497000039E-2,6.699799746E-2,7.712402662E-2
2.396762899E0,1.745500043E-2,5.067999940E-3,1.076029986E-1,1.091272971E-1
2.401773670E0,2.429299988E-2,-2.388199978E-2,1.267530024E-1,1.312509938E-1
2.406784440E0,5.621999968E-3,-5.184499919E-2,1.435890049E-1,1.527655496E-1
2.411795209E0,-1.213200018E-2,-7.649700344E-2,1.485300064E-1,1.675116108E-1
2.416805978E0,-2.180200070E-2,-9.999900311E-2,1.248480007E-1,1.614377624E-1
2.421816747E0,-1.887499914E-2,-1.198100001E-1,7.734300196E-2,1.438493714E-1
2.426827530E0,-2.252300084E-2,-1.242400035E-1,4.906800017E-2,1.354641380E-1
2.431838223E0,-1.181599963E-2,-9.069299698E-2,7.819800079E-2,1.203318947E-1
2.436849072E0,-3.664999967E-3,-5.984700099E-2,1.168750003E-1,1.313577613E-1
2.441859843E0,1.818699948E-2,-4.566400126E-2,1.077129990E-1,1.183978805E-1
2.446870536E0,4.196500033E-2,-3.836899996E-2,7.943999767E-2,9.769316578E-2
2.451881385E0,4.698099941E-2,-2.845700085E-2,3.326999955E-3,5.502803042E-2
2.456892156E0,2.671499923E-2,-1.824799925E-2,-5.840799958E-2,6.676956698E-2
2.461902925E0,-4.678000230E-3,8.318999782E-3,-1.225790009E-1,1.229499935E-1
2.466913685E0,-2.874699980E-2,5.050300062E-2,-1.198510006E-1,1.331961164E-1
2.471924454E0,-5.076999962E-2,8.427599818E-2,-9.808599949E-2,1.389276791E-1
2.476935233E0,-7.341700047E-2,1.050160006E-1,-5.248500034E-2,1.384669332E-1
2.481946002E0,-4.769799858E-2,1.314900070E-1,-2.375200018E-2,1.418762790E-1
2.486956771E0,4.447000101E-3,1.541559994E-1,1.683899947E-2,1.551367135E-1
2.491967549E0,7.089500129E-2,1.731390059E-1,2.622699924E-2,1.889208090E-1
2.496978318E0,9.575100243E-2,1.815329939E-1,5.946699902E-2,2.136792136E-1
2.501989072E0,1.221529990E-1,1.749870032E-1,1.022410020E-1,2.366326879E-1
2.506999841E0,1.340039968E-1,1.608610004E-1,1.665219963E-1,2.675124443E-1
2.512010600E0,1.014209986E-1,1.462939978E-1,2.259729952E-1,2.876663819E-1
2.517021369E0,4.661599919E-2,1.035510004E-1,2.806690037E-1,3.027721102E-1
2.522032153E0,-1.780599914E-2,5.229600146E-2,2.971439958E-1,3.022358013E-1
2.527042922E0,-4.944499955E-2,-9.305000305E-3,2.874209881E-1,2.917913902E-1
2.532053692E0,-6.991600245E-2,-6.900099665E-2,2.443459928E-1,2.633521390E-1
2.537064452E0,-8.656100184E-2,-1.172690019E-1,1.703090072E-1,2.241650815E-1
2.542075222E0,-9.286399931E-2,-1.426230073E-1,9.399399906E-2,1.944220061E-1
2.547085991E0,-8.478800207E-2,-1.642670035E-1,4.412100092E-2,1.900508260E-1
2.552096765E0,-7.247400284E-2,-1.289259940E-1,2.054099925E-2,1.493195422E-1
2.557107534E0,-6.323699653E-2,-1.175180003E-1,6.875800341E-2,1.501234864E-1
2.562118303E0,-7.079099864E-2,-8.773600310E-2,1.264809966E-1,1.694296734E-1
2.567129101E0,-9.904800355E-2,-7.738400251E-2,1.602389961E-1,2.036549207E-1
2.572139870E0,-1.216610000E-1,-6.720999628E-2,1.604710072E-1,2.122958470E-1
2.577150634E0,-1.248530000E-1,-7.139100134E-2,1.415590048E-1,2.018016316E-1
2.582161403E0,-1.162780002E-1,-6.624200195E-2,1.106669977E-1,1.736541406E-1
2.587172172E0,-9.409599751E-2,-5.218200013E-2,8.690000325E-2,1.383062849E-1
2.592183157E0,-5.199899897E-2,-8.736999705E-3,9.888499975E-2,1.120645985E-1
2.597193929E0,-6.730999798E-3,4.213700071E-2,1.130800024E-1,1.208632290E-1
2.602204694E0,2.557599917E-2,8.160399646E-2,1.199359968E-1,1.473023669E-1
2.607215232E0,5.486200005E-2,9.853500128E-2,9.081500024E-2,1.447976167E-1
2.612225995E0,7.648699731E-2,9.843800217E-2,2.817700058E-2,1.278054944E-1
2.617236764E0,9.744500369E-2,1.121070012E-1,-2.972000092E-2,1.514819690E-1
2.622247740E0,9.438399971E-2,1.229450032E-1,-4.218599945E-2,1.606345908E-1
2.627258511E0,8.197700232E-2,1.287309974E-1,-9.209999815E-3,1.528944823E-1
2.632269050E0,7.676000148E-2,1.366689950E-1,3.810599819E-2,1.613151547E-1
2.637280038E0,8.339499682E-2,1.235169992E-1,6.871899962E-2,1.641142148E-1
2.642290578E0,7.854899764E-2,1.018539965E-1,8.028200269E-2,1.516224970E-1
2.647301576E0,5.596800148E-2,6.265500188E-2,8.718299866E-2,1.210741166E-1
2.652312342E0,6.016200036E-2,1.809800044E-2,5.116700009E-2,8.102509367E-2
2.657322881E0,4.853900149E-2,-3.619800135E-2,-1.816600002E-2,6.321656053E-2
2.662333879E0,4.449100047E-2,-9.758099914E-2,-9.207300097E-2,1.413468713E-1
2.667344664E0,-1.218999969E-3,-1.170940027E-1,-1.587119997E-1,1.972358747E-1
2.672355433E0,-4.589299858E-2,-1.449770033E-1,-1.821810007E-1,2.373065862E-1
2.677366208E0,-1.155370027E-1,-1.626220047E-1,-1.768880039E-1,2.666159811E-1
2.682376977E0,-1.678580046E-1,-1.614159942E-1,-1.524789929E-1,2.783545871E-1
2.687387736E0,-2.174420059E-1,-1.421329975E-1,-8.269699663E-2,2.726198968E-1
2.692398505E0,-2.319069952E-1,-1.241530031E-1,1.808499917E-2,2.636700396E-1
2.697409295E0,-2.445120066E-1,-1.191190034E-1,1.068219990E-1,2.922095102E-1
2.702420064E0,-2.341209948E-1,-1.057939976E-1,2.145980000E-1,3.347496255E-1
2.707430833E0,-1.869280040E-1,-8.925899863E-2,3.318150043E-1,3.911654952E-1
2.712441372E0,-1.220249981E-1,-8.109600097E-2,4.513289928E-1,4.745150380E-1
2.717452370E0,-4.877600074E-2,-9.251300246E-2,5.516719818E-1,5.614977555E-1
2.722463142E0,-1.342600025E-2,-1.227520034E-1,5.970029831E-1,6.096399541E-1
2.727473925E0,-1.007799990E-2,-1.782310009E-1,6.280620098E-1,6.529393111E-1
2.732484694E0,-2.161700092E-2,-2.230339944E-1,6.089540124E-1,6.488732130E-1
2.737495463E0,-6.406199932E-2,-2.643750012E-1,5.899220109E-1,6.496199350E-1
2.742506233E0,-1.064720005E-1,-2.789759934E-1,5.350189805E-1,6.127064560E-1
2.747517002E0,-1.487489939E-1,-2.652229965E-1,4.681110084E-1,5.582091160E-1
2.752527761E0,-1.653710008E-1,-2.213789970E-1,3.867520094E-1,4.753244628E-1
2.757538530E0,-1.690340042E-1,-1.994560063E-1,2.670840025E-1,3.737499932E-1
2.762549299E0,-1.535650045E-1,-1.525699943E-1,1.760240048E-1,2.790058495E-1
2.767560063E0,-9.417799860E-2,-9.996300191E-2,7.288499922E-2,1.554809322E-1
2.772570832E0,-2.259300090E-2,-3.040299937E-2,-1.129399985E-2,3.952645308E-2
2.777581601E0,5.338399857E-2,4.384800047E-2,-7.654500008E-2,1.031098224E-1
2.782592370E0,1.241599992E-1,1.156279966E-1,-1.563680023E-1,2.307303429E-1
2.787603139E0,1.457359940E-1,1.475919932E-1,-1.717070043E-1,2.692687723E-1
2.792613928E0,1.243159994E-1,1.572210044E-1,-1.751379967E-1,2.661695509E-1
2.797624774E0,1.216100007E-1,1.519899964E-1,-1.307380050E-1,2.344832132E-1
2.802635459E0,1.325850040E-1,1.835339963E-1,-1.199510023E-1,2.562259824E-1
2.807646226E0,1.429650038E-1,2.251249999E-1,-9.255299717E-2,2.822876462E-1
2.812656995E0,1.345079988E-1,2.233050019E-1,-5.079799891E-2,2.655898385E-1
2.817667764E0,1.289059967E-1,1.724629998E-1,-1.739999978E-3,2.153213178E-1
2.822678534E0,1.126959994E-1,9.744399786E-2,7.861900330E-2,1.684537583E-1
2.827689303E0,7.000800222E-2,-1.251699962E-2,1.927590072E-1,2.054600460E-1
2.832700072E0,5.533999950E-2,-8.924199641E-2,3.190450072E-1,3.358814763E-1
2.837710831E0,6.341499835E-2,-1.221050024E-1,4.454050064E-1,4.661724073E-1
2.842721601E0,7.958599925E-2,-1.192639992E-1,5.167279840E-1,5.362514729E-1
2.847732371E0,9.895499796E-2,-9.563799948E-2,5.186210275E-1,5.365691835E-1
2.852743207E0,1.143800020E-1,-7.967100292E-2,4.463199973E-1,4.675807883E-1
2.857753978E0,1.441140026E-1,-6.879000366E-2,3.309429884E-1,3.674563538E-1
2.862764742E0,1.824759990E-1,-3.960800171E-2,2.083359957E-1,2.797680666E-1
2.867775435E0,1.870390028E-1,-1.593199931E-2,1.263729930E-1,2.262908538E-1
2.872786269E0,2.004210055E-1,6.945999805E-3,5.632799864E-2,2.083018718E-1
2.877796963E0,2.148379982E-1,9.173200279E-2,-2.585900016E-2,2.350293890E-1
2.882807802E0,2.064090073E-1,1.643649936E-1,-1.489000022E-2,2.642768274E-1
2.887818497E0,2.152850032E-1,2.435439974E-1,4.853200167E-2,3.286588907E-1
2.892829264E0,2.410040051E-1,3.174900115E-1,1.285379976E-1,4.188136276E-1
2.897840024E0,2.531760037E-1,3.607439995E-1,2.012739927E-1,4.845054614E-1
2.902850793E0,2.341009974E-1,3.602330089E-1,2.764190137E-1,5.108606159E-1
2.907861577E0,2.409249991E-1,3.101519942E-1,3.468720019E-1,5.239840650E-1
2.912872346E0,2.480569929E-1,2.167630047E-1,3.983559906E-1,5.169196912E-1
2.917883115E0,2.724649906E-1,6.992000341E-2,3.878799975E-1,4.791418062E-1
2.922893880E0,2.815699875E-1,-6.336200237E-2,3.321860135E-1,4.400499389E-1
2.927904650E0,2.338439971E-1,-1.461589932E-1,2.240349948E-1,3.552986704E-1
2.932915415E0,1.447020024E-1,-2.144079953E-1,1.232580021E-1,2.865344535E-1
2.937926185E0,7.556299865E-2,-2.380650043E-1,1.304899994E-2,2.501099547E-1
2.942936973E0,4.205799848E-2,-2.366800010E-1,-8.987300098E-2,2.566387625E-1
2.947947742E0,1.273700036E-2,-2.457350045E-1,-2.022390068E-1,3.185098735E-1
2.952958563E0,2.658399940E-2,-2.228139937E-1,-3.336789906E-1,4.021124887E-1
2.957969334E0,7.703799754E-2,-1.644479930E-1,-3.933610022E-1,4.332561293E-1
2.962980103E0,1.395529956E-1,-7.873500139E-2,-4.124560058E-1,4.424863792E-1
2.967990796E0,1.741459966E-1,1.253800001E-2,-4.340359867E-1,4.678367956E-1
2.973001563E0,2.116869986E-1,7.434699684E-2,-4.461059868E-1,4.993489890E-1
2.978012409E0,2.446980029E-1,1.351539940E-1,-4.869770110E-1,5.615071896E-1
2.983023098E0,2.823910117E-1,1.601269990E-1,-5.614010096E-1,6.485032250E-1
2.988033866E0,2.945429981E-1,1.689070016E-1,-6.023359895E-1,6.914432711E-1
2.993044630E0,2.726520002E-1,2.081789970E-1,-6.002309918E-1,6.913427888E-1
2.998055476E0,2.523680031E-1,2.560549974E-1,-5.814260244E-1,6.836007553E-1
3.003066266E0,2.540000081E-1,2.935560048E-1,-5.507310033E-1,6.737920822E-1
3.008077035E0,2.210019976E-1,2.838810086E-1,-5.008879900E-1,6.167001610E-1
3.013087805E0,1.359730065E-1,2.030179948E-1,-4.413419962E-1,5.044677614E-1
3.018098593E0,-2.025100030E-2,1.086570024E-1,-2.858789861E-1,3.065016181E-1
3.023109362E0,-1.849589944E-1,2.187599987E-2,-1.350049973E-1,2.300320375E-1
3.028120131E0,-3.620829880E-1,-9.490799904E-2,-2.217100002E-2,3.749708945E-1
3.033130915E0,-5.299310088E-1,-2.340050042E-1,5.745099857E-2,5.821390155E-1
3.038141684E0,-6.978620291E-1,-3.763580024E-1,1.158590019E-1,8.012989866E-1
3.043152453E0,-7.913389802E-1,-4.822599888E-1,1.673389971E-1,9.416976257E-1
3.048163222E0,-8.074089885E-1,-5.411530137E-1,2.022269964E-1,9.927998877E-1
3.053173991E0,-7.899379730E-1,-5.336179733E-1,2.563109994E-1,9.871400463E-1
3.058184750E0,-7.860339880E-1,-4.804989994E-1,3.223659992E-1,9.760371694E-1
3.063195519E0,-6.855530143E-1,-3.942719996E-1,2.878000140E-1,8.415831469E-1
3.068206288E0,-5.492510200E-1,-2.942950130E-1,2.171500027E-1,6.598790505E-1
3.073217063E0,-3.877370059E-1,-1.807910055E-1,1.270889938E-1,4.462924891E-1
3.078227757E0,-2.089889944E-1,-6.093100086E-2,-6.370999850E-3,2.177833241E-1
3.083238524E0,-1.642699912E-2,4.438700154E-2,-1.545529962E-1,1.616374982E-1
3.088249370E0,1.588550061E-1,1.448580027E-1,-2.935290039E-1,3.638379172E-1
3.093260065E0,2.983259857E-1,2.313520014E-1,-4.519599974E-1,5.888887684E-1
3.098270918E0,3.749099970E-1,3.089829981E-1,-5.938529968E-1,7.672609600E-1
3.103281689E0,3.741039932E-1,3.574120104E-1,-7.166500092E-1,8.839029237E-1
3.108292458E0,3.235099912E-1,4.146400094E-1,-7.724390030E-1,9.344768938E-1
3.113303228E0,2.195589989E-1,4.850670099E-1,-7.611830235E-1,9.289218230E-1
3.118313997E0,7.527100295E-2,5.079870224E-1,-6.588439941E-1,8.353394205E-1
3.123324766E0,-1.266269982E-1,4.568510056E-1,-4.987620115E-1,6.881211972E-1
3.128335535E0,-3.262569904E-1,3.268730044E-1,-3.263129890E-1,5.654818756E-1
3.133346304E0,-4.680930078E-1,1.942950040E-1,-1.727000028E-1,5.354315115E-1
3.138357073E0,-5.401239991E-1,4.501200095E-2,-3.802099824E-2,5.433282718E-1
3.143367828E0,-5.628060102E-1,-1.368899941E-1,2.267099917E-2,5.796580456E-1
3.148378597E0,-5.303869843E-1,-3.109419942E-1,8.349599689E-2,6.204569755E-1
3.153389366E0,-4.879550040E-1,-5.097119808E-1,8.710700274E-2,7.109810259E-1
3.158400154E0,-4.186950028E-1,-6.674349904E-1,9.571000189E-2,7.936846831E-1
3.163410923E0,-3.578940034E-1,-7.528700233E-1,1.499460042E-1,8.469859466E-1
3.168421697E0,-2.910229862E-1,-7.801499963E-1,2.593050003E-1,8.721051991E-1
3.173432466E0,-1.785040051E-1,-6.812940240E-1,3.445599973E-1,7.840579180E-1
3.178443161E0,-3.574499860E-2,-5.160989761E-1,4.437789917E-1,6.815978665E-1
3.183453932E0,1.411219984E-1,-2.608410120E-1,4.992949963E-1,5.807313882E-1
3.188464778E0,3.165760040E-1,-1.102299988E-2,4.680399895E-1,5.651577697E-1
3.193475474E0,4.393790066E-1,1.544629931E-1,3.909049928E-1,6.080455913E-1
3.198486318E0,5.433089733E-1,2.890950143E-1,2.894969881E-1,6.801243077E-1
3.203497089E0,6.007909775E-1,4.284180105E-1,2.188919932E-1,7.696788259E-1
3.208507853E0,6.152499914E-1,5.050309896E-1,9.312199801E-2,8.014116040E-1
3.213518622E0,5.569000244E-1,5.321840048E-1,-8.768200129E-2,7.752712980E-1
3.218529401E0,4.644959867E-1,5.508909822E-1,-2.516990006E-1,7.632756925E-1
3.223540170E0,3.547640145E-1,5.358780026E-1,-4.012669921E-1,7.576529144E-1
3.228550930E0,2.462359965E-1,5.000339746E-1,-5.339689851E-1,7.718737065E-1
3.233561622E0,1.246519983E-1,4.212320149E-1,-6.305710077E-1,7.685013512E-1
3.238572476E0,2.027699910E-2,3.429270089E-1,-6.097300053E-1,6.998433892E-1
3.243583247E0,-6.964600086E-2,2.930710018E-1,-5.217559934E-1,6.024703263E-1
3.248594016E0,-1.059100032E-1,2.317049950E-1,-3.810119927E-1,4.583385998E-1
3.253604780E0,-1.079600006E-1,1.661610007E-1,-2.209980041E-1,2.968247929E-1
3.258615550E0,-1.153829992E-1,8.263599873E-2,1.424000016E-3,1.419294633E-1
3.263626324E0,-1.012789980E-1,-6.854999810E-3,1.953530014E-1,2.201527233E-1
3.268637093E0,-8.830499649E-2,-9.283000231E-2,3.560329974E-1,3.783842980E-1
3.273647872E0,-5.474499986E-2,-1.779720038E-1,5.121740103E-1,5.449708854E-1
3.278658641E0,-9.912000038E-3,-3.043119907E-1,5.896739960E-1,6.636410603E-1
3.283669410E0,4.568700120E-2,-4.200389981E-1,6.507049799E-1,7.758460111E-1
3.288680174E0,7.891900092E-2,-4.864340127E-1,7.310659885E-1,8.816483069E-1
3.293690943E0,9.257200360E-2,-4.867939949E-1,7.851430178E-1,9.284328342E-1
3.298701678E0,1.219080016E-1,-4.165329933E-1,8.151320219E-1,9.234725272E-1
3.303712447E0,1.732610017E-1,-2.989400029E-1,8.256539702E-1,8.950357415E-1
3.308723216E0,1.853230000E-1,-1.704960018E-1,8.310179710E-1,8.683342497E-1
3.313733985E0,1.592170000E-1,-2.688400075E-2,8.000869751E-1,8.162180899E-1
3.318744755E0,1.166329980E-1,1.060810015E-1,6.730690002E-1,6.912874324E-1
3.323755535E0,4.777399823E-2,2.055339962E-1,4.667949975E-1,5.122735091E-1
3.328766305E0,-5.524000153E-3,2.727720141E-1,2.531329989E-1,3.721711991E-1
3.333777088E0,-5.103399977E-2,3.069959879E-1,4.894600064E-2,3.150344691E-1
3.338787857E0,-1.171460003E-1,2.956739962E-1,-1.145239994E-1,3.380266910E-1
3.343798550E0,-1.615729928E-1,2.523329854E-1,-2.180490047E-1,3.705713642E-1
3.348809327E0,-1.546590030E-1,2.386499941E-1,-3.358750045E-1,4.400968593E-1
3.353820173E0,-1.328310072E-1,2.331999987E-1,-4.081949890E-1,4.885176199E-1
3.358830939E0,-1.198069975E-1,2.035070062E-1,-4.253740013E-1,4.865304298E-1
3.363841937E0,-9.928499907E-2,1.621070057E-1,-4.400370121E-1,4.793420119E-1
3.368852478E0,-9.245499969E-2,1.092310026E-1,-3.660239875E-1,3.930049597E-1
3.373863231E0,-9.874200076E-2,4.944099858E-2,-1.961600035E-1,2.251069569E-1
3.378874000E0,-9.844300151E-2,-1.982500032E-2,-4.051399976E-2,1.082840679E-1
3.383884784E0,-7.744699717E-2,-8.687999845E-2,3.867499903E-2,1.226455342E-1
3.388895553E0,-4.764800146E-2,-1.427070051E-1,8.924099803E-2,1.749273480E-1
3.393906322E0,-4.628099874E-2,-1.833149940E-1,1.661929935E-1,2.517268936E-1
3.398917006E0,-5.605800077E-2,-2.209250033E-1,2.264579982E-1,3.212998311E-1
3.403927851E0,-7.401700318E-2,-2.581450045E-1,2.652469873E-1,3.774563874E-1
3.408938622E0,-9.749700129E-2,-2.997260094E-1,2.658190131E-1,4.123118889E-1
3.413949377E0,-1.308089942E-1,-3.477180004E-1,2.138500065E-1,4.286614352E-1
3.418960146E0,-1.576810032E-1,-3.691389859E-1,9.733600169E-2,4.130389653E-1
3.423970926E0,-1.905670017E-1,-3.621990085E-1,2.369999886E-3,4.092792699E-1
3.428981695E0,-2.366539985E-1,-3.300490081E-1,-3.998799995E-2,4.080888419E-1
3.433992449E0,-2.562519908E-1,-2.803789973E-1,-3.458800167E-2,3.814102710E-1
3.439003218E0,-2.221869975E-1,-1.904609948E-1,-1.984000020E-2,2.933190721E-1
3.444014006E0,-1.407019943E-1,-7.999599725E-2,-3.171600029E-2,1.649312446E-1
3.449024775E0,-4.107600078E-2,2.265799977E-2,-1.517099980E-2,4.930296166E-2
3.454035530E0,1.017270014E-1,1.271789968E-1,-4.679900035E-2,1.694491855E-1
3.459046299E0,2.237440050E-1,1.964800060E-1,-7.623799890E-2,3.073727460E-1
3.464057068E0,2.791590095E-1,2.526949942E-1,-1.201390028E-1,3.952440925E-1
3.469067842E0,2.958000004E-1,2.939299941E-1,-1.521050036E-1,4.438788278E-1
3.474078611E0,2.818099856E-1,3.182609975E-1,-1.960140020E-1,4.681115460E-1
3.479089380E0,2.333129942E-1,3.146330118E-1,-2.733280063E-1,4.776369797E-1
3.484100125E0,1.742479950E-1,2.932350039E-1,-3.409399986E-1,4.822750398E-1
3.489110895E0,1.048640013E-1,2.570829988E-1,-4.203490019E-1,5.037672185E-1
3.494121665E0,4.386800155E-2,2.229820043E-1,-4.397790134E-1,4.950262179E-1
3.499132462E0,1.177500002E-2,1.930810064E-1,-3.825129867E-1,4.286433373E-1
3.504143231E0,-6.438000128E-3,1.669889987E-1,-2.749100029E-1,3.217177074E-1
3.509153986E0,-2.474199980E-2,1.235520020E-1,-1.911209971E-1,2.289202902E-1
3.514164755E0,-1.238700002E-2,6.310299784E-2,-7.847999781E-2,1.014619937E-1
3.519175524E0,6.872000173E-3,-1.186500024E-2,3.191300109E-2,3.473387764E-2
3.524186208E0,5.173000041E-3,-1.102339998E-1,1.281580031E-1,1.691235300E-1
3.529196975E0,-1.928099990E-2,-2.224150002E-1,2.078749985E-1,3.050445939E-1
3.534207715E0,-6.583599746E-2,-3.112550080E-1,3.092879951E-1,4.437038680E-1
3.539218484E0,-9.189099818E-2,-3.590919971E-1,3.987959921E-1,5.444531764E-1
3.544229254E0,-6.757099926E-2,-3.346979916E-1,4.522939920E-1,5.667084266E-1
3.549240009E0,-4.095799848E-2,-2.655110061E-1,4.194419980E-1,4.981016379E-1
3.554250778E0,-2.626099996E-2,-1.875070035E-1,3.624419868E-1,4.089165077E-1
3.559261624E0,-5.299999975E-5,-5.897599831E-2,3.146820068E-1,3.201607981E-1
3.564272400E0,2.801699936E-2,7.706599683E-2,2.283090055E-1,2.425883800E-1
3.569283093E0,4.403699934E-2,1.602949947E-1,1.513230056E-1,2.247941161E-1
3.574293855E0,7.144799829E-2,2.157219946E-1,5.747900158E-2,2.344027113E-1
3.579304624E0,8.870100230E-2,2.512980103E-1,4.265999887E-3,2.665272154E-1
3.584315393E0,1.028300002E-1,2.515650094E-1,-2.258099988E-2,2.727065537E-1
3.589326235E0,6.782200187E-2,1.967110038E-1,-1.814400032E-2,2.088641848E-1
3.594336929E0,4.789200053E-2,1.370210052E-1,-1.832400076E-2,1.463016356E-1
3.599347773E0,7.972000167E-3,7.257399708E-2,-4.943199828E-2,8.817063169E-2
3.604358481E0,-2.132100053E-2,5.799000151E-3,-1.138629988E-1,1.159870508E-1
3.609369249E0,-5.452499911E-2,-4.697899893E-2,-1.709679961E-1,1.854994813E-1
3.614380105E0,-5.690599978E-2,-7.449600101E-2,-1.849049926E-1,2.073108855E-1
3.619390799E0,-4.357999936E-2,-8.232899755E-2,-1.533419937E-1,1.794186367E-1
3.624401566E0,-5.645399913E-2,-9.686399996E-2,-6.430900097E-2,1.292491242E-1
3.629412336E0,-7.592999935E-2,-1.017009988E-1,4.149100184E-2,1.335288778E-1
3.634423119E0,-8.042100072E-2,-1.205290034E-1,1.210059971E-1,1.887782544E-1
3.639433888E0,-8.418300003E-2,-1.484259963E-1,2.029629946E-1,2.651622730E-1
3.644444652E0,-6.865599751E-2,-1.691170037E-1,3.064649999E-1,3.567001585E-1
3.649455422E0,-4.110400006E-2,-1.921499968E-1,3.549410105E-1,4.057022073E-1
3.654466268E0,-3.697500005E-2,-2.291339934E-1,3.986740112E-1,4.613138897E-1
3.659476977E0,-6.044900045E-2,-2.493650019E-1,3.658489883E-1,4.468584430E-1
3.664487744E0,-8.772700280E-2,-2.252990007E-1,3.281640112E-1,4.076116841E-1
3.669498490E0,-1.281059980E-1,-2.024230063E-1,2.880080044E-1,3.746129080E-1
3.674509259E0,-1.952680051E-1,-1.946000010E-1,2.741430104E-1,3.887841874E-1
3.679520028E0,-2.442670017E-1,-1.804299951E-1,2.410899997E-1,3.877444251E-1
3.684530806E0,-2.339120060E-1,-1.530220062E-1,1.912019998E-1,3.386572982E-1
3.689541576E0,-1.826239973E-1,-9.898400307E-2,1.985570043E-1,2.873573407E-1
3.694552342E0,-1.125520021E-1,-3.082700074E-2,2.319950014E-1,2.596920057E-1
3.699563112E0,-3.319599852E-2,5.121399835E-2,2.747429907E-1,2.814401515E-1
3.704573876E0,4.176200181E-2,1.094520018E-1,3.555749953E-1,3.743759912E-1
3.709584645E0,1.080679968E-1,1.816380024E-1,4.577110112E-1,5.041531767E-1
3.714595428E0,1.965519935E-1,2.163819969E-1,4.496439993E-1,5.363148151E-1
3.719606197E0,2.112749964E-1,1.939509958E-1,4.081130028E-1,4.988089172E-1
3.724616966E0,1.986979991E-1,1.487250030E-1,3.571240008E-1,4.348994979E-1
3.729627759E0,2.247059941E-1,1.444379985E-1,2.176299989E-1,3.445546918E-1
3.734638528E0,2.786979973E-1,1.269119978E-1,3.514799848E-2,3.082444009E-1
3.739649307E0,2.826919854E-1,5.935800076E-2,-1.040610000E-1,3.070290256E-1
3.744660076E0,2.425269932E-1,8.426999673E-3,-2.119819969E-1,3.222215445E-1
3.749670845E0,2.031929940E-1,-9.219999774E-4,-2.863300145E-1,3.511027201E-1
3.754681610E0,1.550710052E-1,-5.047000013E-3,-2.864570022E-1,3.257761547E-1
3.759692456E0,1.049190015E-1,-1.386199985E-2,-2.363229990E-1,2.589376600E-1
3.764703227E0,5.260200053E-2,-2.284600027E-2,-1.503040045E-1,1.608732544E-1
3.769713919E0,-3.856000025E-3,-4.152999818E-2,-5.950500071E-2,7.266673651E-2
3.774724687E0,-3.599800169E-2,-8.096399903E-2,-3.325299919E-2,9.464030442E-2
3.779735456E0,-5.817500129E-2,-1.195759997E-1,-3.325999901E-2,1.370728930E-1
3.784746220E0,-8.655899763E-2,-1.593029946E-1,-5.230899900E-2,1.886958811E-1
3.789756989E0,-1.137199998E-1,-1.953179985E-1,-3.775199875E-2,2.291431263E-1
3.794767740E0,-1.050970033E-1,-1.810699999E-1,-4.472599924E-2,2.140844226E-1
3.799778280E0,-5.249499902E-2,-1.320990026E-1,-5.658699945E-2,1.529966010E-1
3.804789283E0,-8.059699833E-2,-1.144739985E-1,1.529600006E-2,1.408337321E-1
3.809800054E0,-1.265839934E-1,-9.508199990E-2,1.517570019E-1,2.193040850E-1
3.814810593E0,-1.712200046E-1,-7.659900188E-2,3.001340032E-1,3.539267112E-1
3.819821360E0,-1.957869977E-1,-6.849599630E-2,4.412899911E-1,4.876075330E-1
3.824832360E0,-1.705469936E-1,-3.586300090E-2,5.416359901E-1,5.689832842E-1
3.829843135E0,-1.104869992E-1,-2.342900075E-2,5.509660244E-1,5.624231993E-1
3.834853905E0,-5.843000114E-2,-2.590999939E-2,5.291420221E-1,5.329884358E-1
3.839864443E0,-7.300000172E-3,-6.371200085E-2,4.929910004E-1,4.971444816E-1
3.844875210E0,3.108300082E-2,-9.383799881E-2,4.185799956E-1,4.300941010E-1
3.849886210E0,7.339099795E-2,-8.153899759E-2,3.273630142E-1,3.452555427E-1
3.854896746E0,9.858399630E-2,-5.822499841E-2,2.193260044E-1,2.474123096E-1
3.859907513E0,1.001230031E-1,3.860000055E-3,8.723899722E-2,1.328538972E-1
3.864918513E0,1.321620047E-1,4.095000029E-2,-7.363899797E-2,1.567367220E-1
3.869929299E0,6.326500326E-2,4.014699906E-2,-2.607769966E-1,2.713280010E-1
3.874940069E0,5.355000030E-3,1.664699987E-2,-3.784080148E-1,3.788118587E-1
3.879950838E0,-4.415100068E-2,-2.937000012E-3,-5.342010260E-1,5.360304777E-1
3.884961622E0,-7.613100111E-2,1.387200039E-2,-6.803699732E-1,6.847566445E-1
3.889972160E0,-7.723599672E-2,3.838200122E-2,-8.169299960E-1,8.214701429E-1
3.894983154E0,-9.777999669E-2,2.873500064E-2,-9.007359743E-1,9.064832726E-1
3.899993694E0,-1.117929965E-1,3.698800132E-2,-9.102969766E-1,9.178814585E-1
3.905004461E0,-1.196930036E-1,5.111800134E-2,-8.982689977E-1,9.076489725E-1
3.910015240E0,-1.147890016E-1,5.681800097E-2,-8.024449944E-1,8.126024669E-1
3.915026010E0,-9.978500009E-2,6.801799685E-2,-6.731100082E-1,6.838571323E-1
3.920036769E0,-7.937499881E-2,4.247400165E-2,-5.006390214E-1,5.086687144E-1
3.925047538E0,-6.505399942E-2,8.992999792E-3,-3.209060133E-1,3.275569664E-1
3.930058307E0,-6.091700122E-2,-5.102200061E-2,-1.912900060E-1,2.071376161E-1
3.935069077E0,-2.935599908E-2,-9.057100117E-2,-4.006800056E-2,1.032972681E-1
3.940079847E0,3.456000006E-3,-1.032579988E-1,8.007100224E-2,1.307116049E-1
3.945090617E0,3.542299941E-2,-8.538299799E-2,1.882040054E-1,2.096802157E-1
3.950101386E0,4.111300036E-2,-1.214120016E-1,2.725000083E-1,3.011434998E-1
3.955112384E0,8.643499762E-2,-1.634889990E-1,3.209779859E-1,3.704409926E-1
3.960122930E0,1.470800042E-1,-1.721310019E-1,3.718380034E-1,4.353448176E-1
3.965133697E0,1.974200010E-1,-1.274839938E-1,3.914740086E-1,4.565947052E-1
3.970144466E0,2.237769961E-1,-8.688499779E-2,3.727169931E-1,4.433318213E-1
3.975155236E0,2.240979970E-1,-5.503100157E-2,3.466860056E-1,4.164606942E-1
3.980165990E0,2.269610018E-1,-1.783999987E-2,3.157440126E-1,3.892606369E-1
3.985176759E0,2.391149998E-1,3.626300022E-2,2.559289932E-1,3.521230437E-1
3.990187528E0,2.438350022E-1,8.585300297E-2,2.007479966E-1,3.273010916E-1
3.995198289E0,2.503350079E-1,1.427450031E-1,1.645469964E-1,3.318425321E-1
4.000209059E0,2.561720014E-1,1.836420000E-1,1.449840069E-1,3.469421287E-1
4.005219829E0,2.408279926E-1,1.952690035E-1,1.182160005E-1,3.318179147E-1
4.010230583E0,2.237479985E-1,1.856400073E-1,8.909499645E-2,3.040777820E-1
4.015241352E0,2.142869979E-1,1.672129929E-1,7.439900190E-2,2.818054541E-1
4.020252126E0,1.680539995E-1,1.331219971E-1,8.612100035E-2,2.310420732E-1
4.025262895E0,1.396269947E-1,1.117419973E-1,1.361919940E-1,2.247893032E-1
4.030273659E0,1.055449992E-1,7.932399958E-2,2.006939948E-1,2.402293140E-1
4.035284428E0,6.597500294E-2,8.295999840E-3,2.677429914E-1,2.758764834E-1
4.040295197E0,5.144799873E-2,-5.151899904E-2,3.085899949E-1,3.170629098E-1
4.045305952E0,3.109700046E-2,-8.896400034E-2,3.231790066E-1,3.366396992E-1
4.050316721E0,3.743699938E-2,-1.023909971E-1,3.234179914E-1,3.412984652E-1
4.055327490E0,4.150599986E-2,-8.808699995E-2,3.499079943E-1,3.632047247E-1
4.060338260E0,2.919499949E-2,-8.656799793E-2,3.906979859E-1,4.012371897E-1
4.065348954E0,2.188800089E-2,-6.953100115E-2,4.122540057E-1,4.186490295E-1
4.070359721E0,1.943599992E-2,-2.829499915E-2,4.312640131E-1,4.326280319E-1
4.075370486E0,7.830000250E-4,-2.146700025E-2,4.167079926E-1,4.172613045E-1
4.080381255E0,1.429999946E-3,-1.099300012E-2,4.020709991E-1,4.022237926E-1
4.085392019E0,1.396800019E-2,1.723299921E-2,3.729810119E-1,3.736400895E-1
4.090402865E0,5.686400086E-2,2.562700026E-2,3.175190091E-1,3.235870499E-1
4.095413560E0,6.637799740E-2,1.036200020E-2,2.285799980E-1,2.382482426E-1
4.100424327E0,5.034000054E-2,-2.761399932E-2,1.110159978E-1,1.249848006E-1
4.105435096E0,3.262399882E-2,-4.102199897E-2,-1.846499927E-2,5.557054883E-2
4.110445865E0,-3.566100076E-2,-3.529499844E-2,-9.290599823E-2,1.055886755E-1
4.115456639E0,-9.494599700E-2,-3.169399872E-2,-1.505700052E-1,1.808053604E-1
4.120467409E0,-1.592269987E-1,1.160200033E-2,-1.819690019E-1,2.420755278E-1
4.125478179E0,-2.053299993E-1,3.778199852E-2,-1.942369938E-1,2.851594252E-1
4.130488949E0,-2.203460038E-1,6.586199999E-2,-1.754180044E-1,2.892432206E-1
4.135499718E0,-2.033029944E-1,7.463800162E-2,-1.063560024E-1,2.412768908E-1
4.140510472E0,-1.666699946E-1,6.441999972E-2,-1.575299911E-2,1.793794315E-1
4.145521241E0,-1.059430018E-1,4.978799820E-2,6.050800160E-2,1.317724655E-1
4.150532006E0,-5.175000057E-2,4.933200032E-2,1.008559987E-1,1.236270249E-1
4.155542775E0,5.572999828E-3,6.037700176E-2,1.387739927E-1,1.514419417E-1
4.160553621E0,3.104300052E-2,5.460000038E-2,2.125789970E-1,2.216633887E-1
4.165564392E0,3.013399988E-2,2.543400042E-2,3.031730056E-1,3.057267042E-1
4.170575084E0,4.538600147E-2,-1.053300034E-2,3.842160106E-1,3.870307171E-1
4.175585851E0,7.437799871E-2,-1.855000039E-3,3.910270035E-1,3.980422656E-1
4.180596635E0,8.418100327E-2,-2.423200011E-2,3.571659923E-1,3.677515155E-1
4.185607404E0,5.432799831E-2,-4.405900091E-2,2.946090102E-1,3.027989364E-1
4.190618173E0,2.547900006E-2,-6.350900233E-2,2.129410058E-1,2.236659223E-1
4.195628961E0,-1.427800022E-2,-8.723100275E-2,1.025979966E-1,1.354232552E-1
4.200639731E0,-7.870999724E-2,-1.311929971E-1,4.020100087E-2,1.581865564E-1
4.205650501E0,-1.346980035E-1,-1.529469937E-1,1.135499962E-2,2.041207267E-1
4.210661281E0,-1.754129976E-1,-1.671579927E-1,1.603999920E-2,2.428349148E-1
4.215672050E0,-1.825930029E-1,-1.509200037E-1,5.897700042E-2,2.441215656E-1
4.220682819E0,-1.502559930E-1,-1.353310049E-1,8.033200353E-2,2.175880858E-1
4.225693588E0,-1.124240011E-1,-1.182719991E-1,1.542679965E-1,2.245574237E-1
4.230704357E0,-1.015930027E-1,-1.092879996E-1,2.496850044E-1,2.908738669E-1
4.235715116E0,-1.094669998E-1,-1.313409954E-1,3.307549953E-1,3.723336515E-1
4.240725885E0,-1.231819987E-1,-1.577109993E-1,3.376860023E-1,3.925282158E-1
4.245736668E0,-8.164600283E-2,-1.486960053E-1,2.775909901E-1,3.253203491E-1
4.250747437E0,-9.575899690E-2,-1.514360011E-1,1.888169944E-1,2.602969560E-1
4.255757983E0,-5.962200090E-2,-1.399209946E-1,1.024340019E-1,1.833722784E-1
4.260768750E0,3.891799971E-2,-7.962299883E-2,3.748900071E-2,9.622815502E-2
4.265779519E0,1.722609997E-1,1.656699926E-2,-4.197100177E-2,1.780726887E-1
4.270790288E0,2.833809853E-1,7.557100058E-2,-1.574140042E-1,3.328587203E-1
4.275801057E0,3.401669860E-1,1.197149977E-1,-2.704949975E-1,4.507913073E-1
4.280811827E0,3.048909903E-1,1.238190010E-1,-3.476229906E-1,4.786767224E-1
4.285822601E0,2.311179936E-1,9.861700237E-2,-4.054880142E-1,4.770339294E-1
4.290833370E0,1.454200000E-1,5.653399974E-2,-4.799669981E-1,5.046893983E-1
4.295844139E0,4.544800147E-2,3.292100132E-2,-5.423700213E-1,5.452655804E-1
4.300854909E0,-1.283599995E-2,2.935500070E-2,-5.377190113E-1,5.386726409E-1
4.305865679E0,-9.602800012E-2,-1.535999961E-2,-4.827080071E-1,4.924066678E-1
4.310876449E0,-8.528999984E-2,-6.744299829E-2,-4.252139926E-1,4.388962082E-1
4.315887232E0,-3.953199834E-2,-1.040989980E-1,-2.695960104E-1,2.916871425E-1
4.320898001E0,-7.681999821E-3,-1.238259971E-1,-3.741500154E-2,1.295830738E-1
4.325908770E0,1.858899929E-2,-1.155800000E-1,1.612219959E-1,1.992406065E-1
4.330919530E0,3.560899943E-2,-8.259499818E-2,3.621810079E-1,3.731822839E-1
4.335930299E0,1.171400025E-2,-6.745699793E-2,5.415729880E-1,5.458836559E-1
4.340941068E0,-1.627700031E-2,-5.800399929E-2,6.300219893E-1,6.328958143E-1
4.345951837E0,-1.280799974E-2,-2.828799933E-2,6.179389954E-1,6.187187226E-1
4.350962606E0,8.150099963E-2,3.964399919E-2,5.650669932E-1,5.722890585E-1
4.355973379E0,2.425789982E-1,1.143670008E-1,4.306850135E-1,5.073597955E-1
4.360984379E0,4.162209928E-1,1.815569997E-1,2.291399986E-1,5.086334613E-1
4.365994920E0,5.432519913E-1,2.298469990E-1,6.576299667E-2,5.935293933E-1
4.371005687E0,5.900970101E-1,3.085190058E-1,-4.508699849E-2,6.674063947E-1
4.376016456E0,5.750219822E-1,3.980830014E-1,-8.185900003E-2,7.041457604E-1
4.381027246E0,5.088660121E-1,4.517189860E-1,-9.233800322E-2,6.866738436E-1
4.386038015E0,3.884449899E-1,4.890739918E-1,-9.561900049E-2,6.318432344E-1
4.391048784E0,2.826560140E-1,5.103690028E-1,-1.251859963E-1,5.966929486E-1
4.396059562E0,1.935749948E-1,4.954110086E-1,-1.546690017E-1,5.539186277E-1
4.401070332E0,6.315100193E-2,4.201390147E-1,-2.150900066E-1,4.762022172E-1
4.406081092E0,-1.004830003E-1,2.961969972E-1,-2.848559916E-1,4.230513331E-1
4.411091862E0,-2.924329937E-1,1.020919979E-1,-3.447749913E-1,4.634755942E-1
4.416102622E0,-4.805780053E-1,-1.015309989E-1,-3.589519858E-1,6.083669050E-1
4.421113391E0,-6.519740224E-1,-2.935439944E-1,-2.843450010E-1,7.694740295E-1
4.426124160E0,-7.424110174E-1,-4.047349989E-1,-9.951700270E-2,8.514036481E-1
4.431134853E0,-7.211250067E-1,-4.309020042E-1,1.260060072E-1,8.494559002E-1
4.436145629E0,-6.013399959E-1,-4.068039954E-1,3.490720093E-1,8.055746700E-1
4.441156399E0,-4.097290039E-1,-3.685980141E-1,5.481089950E-1,7.772810451E-1
4.446167159E0,-1.818320006E-1,-3.210259974E-1,6.202120185E-1,7.216533207E-1
4.451178005E0,2.810199931E-2,-2.712619901E-1,6.611099839E-1,7.151497748E-1
4.456188684E0,1.836459935E-1,-2.220720053E-1,6.780189872E-1,7.367167525E-1
4.461199452E0,2.706589997E-1,-1.692699939E-1,6.470670104E-1,7.215291684E-1
4.466210221E0,3.072640002E-1,-1.201220006E-1,5.012900233E-1,6.001101135E-1
4.471221000E0,3.225550056E-1,-6.793499738E-2,3.675130010E-1,4.936827943E-1
4.476231769E0,3.140900135E-1,-1.518900041E-2,1.811340004E-1,3.628949826E-1
4.481242539E0,2.161329985E-1,1.002999954E-2,-3.624799848E-2,2.193809274E-1
4.486253309E0,9.774799645E-2,3.847499937E-2,-2.080619931E-1,2.330767886E-1
4.491264093E0,-2.263299935E-2,7.453999668E-2,-4.156779945E-1,4.229144817E-1
4.496274862E0,-1.476690024E-1,1.226579994E-1,-5.801259875E-1,6.110624195E-1
4.501285603E0,-2.639699876E-1,1.246580034E-1,-6.989949942E-1,7.575049664E-1
4.506296372E0,-3.932209909E-1,6.592900306E-2,-7.865899801E-1,8.818691388E-1
4.511307141E0,-4.755379856E-1,-7.540000137E-3,-7.927539945E-1,9.244739710E-1
4.516317924E0,-5.333290100E-1,-5.588300154E-2,-7.175509930E-1,8.957913654E-1
4.521328693E0,-5.577809811E-1,-9.838899970E-2,-5.945429802E-1,8.211463776E-1
4.526339462E0,-5.610560179E-1,-1.422609985E-1,-4.428989887E-1,7.288220366E-1
4.531350217E0,-5.477870107E-1,-2.244129926E-1,-2.937119901E-1,6.608316983E-1
4.536360986E0,-5.065709949E-1,-3.093419969E-1,-4.652899876E-2,5.953751688E-1
4.541371755E0,-4.345610142E-1,-3.410919905E-1,1.215590015E-1,5.656532612E-1
4.546382525E0,-3.407309949E-1,-3.208380044E-1,2.249139994E-1,5.192503665E-1
4.551393295E0,-2.317429930E-1,-2.703410089E-1,3.042379916E-1,4.683479811E-1
4.556404065E0,-9.361399710E-2,-1.877389997E-1,3.738510013E-1,4.286887958E-1
4.561414848E0,4.739800096E-2,-9.689000249E-2,4.122210145E-1,4.260990588E-1
4.566425617E0,1.632770002E-1,-3.053300083E-2,4.505130053E-1,4.801599846E-1
4.571436372E0,2.453549951E-1,1.875500008E-2,4.146020114E-1,4.821261780E-1
4.576447141E0,3.079740107E-1,4.638599977E-2,4.025990069E-1,5.090045310E-1
4.581457914E0,3.701809943E-1,6.640999764E-2,3.522799909E-1,5.153110209E-1
4.586468454E0,4.479129910E-1,1.182530001E-1,1.917870045E-1,5.013901422E-1
4.591479221E0,4.632970095E-1,2.006839961E-1,6.235300004E-2,5.087298712E-1
4.596490005E0,4.266079962E-1,3.102580011E-1,-1.029929966E-1,5.374588050E-1
4.601500775E0,3.273940086E-1,3.672479987E-1,-2.371219993E-1,5.461545312E-1
4.606511553E0,1.741250008E-1,4.081740081E-1,-3.758350015E-1,5.815302960E-1
4.611522322E0,2.150299959E-2,4.128049910E-1,-4.640870094E-1,6.214878051E-1
4.616533091E0,-1.010579988E-1,3.384189904E-1,-5.474190116E-1,6.514658137E-1
4.621543861E0,-1.949069947E-1,2.179300040E-1,-5.924059749E-1,6.606262652E-1
4.626554636E0,-2.398039997E-1,1.201879978E-1,-6.087170243E-1,6.651973608E-1
4.631565406E0,-2.349220067E-1,6.812400371E-2,-5.868989825E-1,6.358298867E-1
4.636576175E0,-1.608660072E-1,8.790700138E-2,-4.983919859E-1,5.310368017E-1
4.641586954E0,-7.262700051E-2,1.100480035E-1,-3.719120026E-1,3.945931854E-1
4.646597723E0,2.732500061E-2,1.668069959E-1,-2.313849926E-1,2.865488516E-1
4.651608492E0,1.576679945E-1,2.361139953E-1,-1.414359957E-1,3.171957694E-1
4.656619256E0,2.362129986E-1,3.126690090E-1,-1.067309976E-1,4.061403646E-1
4.661630025E0,2.806270123E-1,3.032599986E-1,-9.368199855E-2,4.236678694E-1
4.666640704E0,2.783139944E-1,1.918089986E-1,-6.867200136E-2,3.449133445E-1
4.671651548E0,2.962020040E-1,8.567799628E-2,-3.648599982E-2,3.104956914E-1
4.676662232E0,3.039759994E-1,1.940600015E-2,-6.651999895E-3,3.046674419E-1
4.681673076E0,2.813360095E-1,-5.682599917E-2,-6.459999713E-4,2.870183997E-1
4.686683848E0,2.364899963E-1,-8.939500153E-2,-4.714599997E-2,2.571803452E-1
4.691694544E0,1.380839944E-1,-1.350480020E-1,-1.317179948E-1,2.337836233E-1
4.696705311E0,6.496000104E-3,-1.650200039E-1,-2.758690119E-1,3.215237338E-1
4.701716081E0,-1.224339977E-1,-1.749020070E-1,-4.030509889E-1,4.561040402E-1
4.706726879E0,-2.257750034E-1,-1.763519943E-1,-5.468140244E-1,6.173167383E-1
4.711737648E0,-2.881219983E-1,-1.901279986E-1,-6.761069894E-1,7.591334552E-1
4.716748408E0,-3.296859860E-1,-1.785549968E-1,-7.790030241E-1,8.645348159E-1
4.721759177E0,-3.558009863E-1,-1.421539932E-1,-8.124489784E-1,8.982624573E-1
4.726769947E0,-3.855189979E-1,-1.280059963E-1,-7.883980274E-1,8.868945160E-1
4.731780717E0,-3.865590096E-1,-1.586260051E-1,-7.164549828E-1,8.293960572E-1
4.736791487E0,-3.926909864E-1,-2.050770074E-1,-5.535370111E-1,7.089894304E-1
4.741802026E0,-4.198310077E-1,-2.927969992E-1,-3.282999992E-1,6.080863814E-1
4.746812793E0,-4.577519894E-1,-3.653840125E-1,-7.181300223E-2,5.900842886E-1
4.751823533E0,-4.850719869E-1,-3.914299905E-1,2.087289989E-1,6.573279737E-1
4.756834533E0,-4.414710104E-1,-3.727459908E-1,4.940820038E-1,7.602323679E-1
4.761845304E0,-3.307169974E-1,-3.249120116E-1,6.884409785E-1,8.299954991E-1
4.766856088E0,-1.731400043E-1,-2.583650053E-1,7.965070009E-1,8.550750491E-1
4.771866857E0,5.565100163E-2,-1.158090010E-1,8.396639824E-1,8.494376740E-1
4.776877597E0,2.719939947E-1,3.315100074E-2,8.298580050E-1,8.739244993E-1
4.781888366E0,3.900020123E-1,1.787150055E-1,7.097529769E-1,8.293310021E-1
4.786899136E0,4.305970073E-1,3.046930134E-1,5.536080003E-1,7.646786469E-1
4.791909674E0,3.838630021E-1,3.905059993E-1,3.854509890E-1,6.696403548E-1
4.796920672E0,2.819289863E-1,4.374740124E-1,2.053470016E-1,5.594951795E-1
4.801931443E0,1.587360054E-1,4.377300143E-1,6.599400192E-2,4.702764008E-1
4.806941982E0,6.123299897E-2,4.093570113E-1,-3.978399932E-2,4.158189624E-1
4.811952740E0,-3.712600097E-2,3.210729957E-1,-7.126799971E-2,3.309763379E-1
4.816963509E0,-1.083279997E-1,2.027830034E-1,-4.999399930E-2,2.352770749E-1
4.821974274E0,-1.665520072E-1,8.803100139E-2,-2.284999937E-3,1.883991760E-1
4.826985043E0,-1.834869981E-1,-2.794099972E-2,8.141999692E-2,2.026755876E-1
4.831995802E0,-1.665609926E-1,-1.171339974E-1,1.843509972E-1,2.746784079E-1
4.837006571E0,-1.464180052E-1,-1.756899953E-1,2.969309986E-1,3.747975782E-1
4.842017360E0,-1.252499968E-1,-2.299949974E-1,3.808769882E-1,4.622256382E-1
4.847028130E0,-8.905000240E-2,-2.407220006E-1,4.481160045E-1,5.164154703E-1
4.852038920E0,-3.804999962E-2,-2.372490019E-1,5.105869770E-1,5.642995237E-1
4.857049689E0,4.009000026E-3,-2.060070038E-1,5.156289935E-1,5.552731010E-1
4.862060468E0,3.973500058E-2,-1.758510023E-1,4.680239856E-1,5.015465047E-1
4.867071237E0,3.173600137E-2,-1.443829983E-1,3.390769958E-1,3.699011126E-1
4.872082001E0,1.555200014E-2,-1.208790019E-1,2.029660046E-1,2.367462710E-1
4.877092770E0,1.868999936E-2,-5.863099918E-2,8.116199821E-2,1.018537191E-1
4.882103520E0,5.386599898E-2,-5.949999904E-4,-4.840999842E-3,5.408636751E-2
4.887114289E0,6.861200184E-2,4.873400182E-2,-7.417800277E-2,1.121828232E-1
4.892124983E0,1.096170023E-1,1.197979972E-1,-9.818399698E-2,1.897565403E-1
4.897135750E0,1.595650017E-1,1.793539971E-1,-4.814700037E-2,2.448407231E-1
4.902146520E0,1.951559931E-1,2.136880010E-1,1.190449968E-1,3.129219307E-1
4.907157289E0,1.661629975E-1,2.094530016E-1,3.077740073E-1,4.076831382E-1
4.912168072E0,1.473300010E-1,1.814740002E-1,4.414919913E-1,4.995539213E-1
4.917178841E0,1.176299974E-1,1.279219985E-1,5.321909785E-1,5.598464893E-1
4.922189610E0,9.142900258E-2,6.344100088E-2,6.277369857E-1,6.375247025E-1
4.927200395E0,4.347199947E-2,-1.643799990E-2,6.850849986E-1,6.866596522E-1
4.932211165E0,-1.136299968E-2,-1.112110019E-1,6.994760036E-1,7.083527965E-1
4.937221935E0,-4.003699869E-2,-1.413690001E-1,6.421279907E-1,6.587233956E-1
4.942232704E0,-5.248599872E-2,-1.618569940E-1,5.393580198E-1,5.655612612E-1
4.947243473E0,-4.925100133E-2,-1.656049937E-1,3.911559880E-1,4.276139404E-1
4.952254007E0,-5.186900124E-2,-1.389130056E-1,2.381799966E-1,2.805653706E-1
4.957265005E0,-5.574800074E-2,-9.871599823E-2,8.521100134E-2,1.418224335E-1
4.962275776E0,-3.800500184E-2,-3.618799895E-2,-5.344000086E-2,7.489849882E-2
4.967286315E0,-8.891000412E-3,4.347699881E-2,-1.921609938E-1,1.972185256E-1
4.972297313E0,-1.590000000E-3,1.189630032E-1,-2.782900035E-1,3.026550021E-1
4.977307853E0,2.152400091E-2,1.509979963E-1,-3.405179977E-1,3.731168507E-1
4.982318606E0,3.430100158E-2,1.734270006E-1,-3.644729853E-1,4.050852259E-1
4.987329375E0,5.548499897E-2,1.772760004E-1,-3.908309937E-1,4.327288193E-1
4.992340144E0,8.926200122E-2,1.583739966E-1,-4.148109853E-1,4.528997474E-1
4.997350904E0,1.116790026E-1,1.474400014E-1,-4.148870111E-1,4.542488146E-1
5.002361674E0,1.254770011E-1,1.464899927E-1,-4.317420125E-1,4.728688625E-1
5.007372443E0,1.028600037E-1,1.367170066E-1,-4.222700000E-1,4.556135129E-1
5.012383202E0,6.118300185E-2,1.298590004E-1,-3.960309923E-1,4.212449009E-1
5.017393971E0,6.099599972E-2,1.536380053E-1,-3.530969918E-1,3.898751521E-1
5.022404746E0,7.534699887E-2,1.535799950E-1,-2.480040044E-1,3.012805525E-1
5.027415516E0,1.086009964E-1,1.512839943E-1,-9.990499914E-2,2.113339353E-1
5.032426271E0,1.212410033E-1,1.280550063E-1,7.689300179E-2,1.923798306E-1
5.037437040E0,1.285559982E-1,9.830799699E-2,2.441319972E-1,2.929019273E-1
5.042447809E0,1.172420010E-1,4.574099928E-2,4.425269961E-1,4.600739811E-1
5.047458578E0,9.523399919E-2,1.042700000E-2,6.146489978E-1,6.220704361E-1
5.052469333E0,2.810399979E-2,-8.043500036E-2,7.797099948E-1,7.843515156E-1
5.057480102E0,-8.653700352E-2,-2.264830023E-1,1.014163971E0,1.042742424E0
5.062490871E0,-1.940989941E-1,-3.664439917E-1,1.251034975E0,1.317969699E0
5.067501644E0,-2.768599987E-1,-4.766390026E-1,1.389837980E0,1.495154109E0
5.072512338E0,-3.105860054E-1,-5.668269992E-1,1.394683003E0,1.537171817E0
5.077523096E0,-3.074159920E-1,-6.441339850E-1,1.215330958E0,1.409412119E0
5.082533866E0,-2.512649894E-1,-6.698549986E-1,9.451069832E-1,1.185355231E0
5.087544635E0,-1.339019984E-1,-5.933849812E-1,5.917000175E-1,8.486132168E-1
5.092555418E0,-7.143499702E-2,-5.021139979E-1,1.928309947E-1,5.425912073E-1
5.097566187E0,-2.627900057E-2,-3.614430130E-1,-2.132740021E-1,4.204966557E-1
5.102576943E0,-4.572800174E-2,-1.708099991E-1,-4.950410128E-1,5.256735777E-1
5.107587713E0,-1.151930019E-1,3.768799827E-2,-6.716269851E-1,6.824753622E-1
5.112598473E0,-1.784289926E-1,2.189680040E-1,-7.382670045E-1,7.904568692E-1
5.117609242E0,-1.895920038E-1,3.620299995E-1,-7.572190166E-1,8.604600441E-1
5.122619997E0,-1.501750052E-1,4.264709949E-1,-7.906960249E-1,9.108404062E-1
5.127630766E0,-7.991600037E-2,4.286839962E-1,-8.099730015E-1,9.198982546E-1
5.132641563E0,-2.322899923E-2,3.432079852E-1,-8.652150035E-1,9.310898505E-1
5.137652332E0,5.296900123E-2,2.382429987E-1,-9.468669891E-1,9.778151853E-1
5.142663101E0,1.136260033E-1,1.352359951E-1,-1.021245003E0,1.036407738E0
5.147673641E0,1.536380053E-1,4.336899891E-2,-1.040619016E0,1.052793162E0
5.152684408E0,1.755239964E-1,-3.537200019E-2,-9.716389775E-1,9.879990660E-1
5.157695177E0,2.117860019E-1,-8.204299957E-2,-8.213239908E-1,8.521487325E-1
5.162705957E0,2.622770071E-1,-9.349200130E-2,-5.561869740E-1,6.219919074E-1
5.167716726E0,3.571240008E-1,-8.974400163E-2,-2.767620087E-1,4.606394981E-1
5.172727500E0,4.006800056E-1,-9.709800035E-2,-4.037800059E-2,4.142497694E-1
5.177738269E0,4.021739960E-1,-1.085190028E-1,1.961040050E-1,4.604096847E-1
5.182749034E0,3.681829870E-1,-1.288969964E-1,3.394030035E-1,5.170759580E-1
5.187759804E0,3.067969978E-1,-1.628610045E-1,4.517470002E-1,5.698451165E-1
5.192770588E0,2.393849939E-1,-1.940470040E-1,4.804680049E-1,5.707967404E-1
5.197781586E0,1.563310027E-1,-2.066320032E-1,5.092859864E-1,5.714091206E-1
5.202792127E0,6.223100051E-2,-2.037329972E-1,5.501340032E-1,5.899383468E-1
5.207802894E0,-4.945399985E-2,-1.905210018E-1,5.575429797E-1,5.912682339E-1
5.212813588E0,-1.316320002E-1,-1.951860040E-1,4.668970108E-1,5.228932763E-1
5.217824384E0,-1.783030033E-1,-1.959030032E-1,2.638210058E-1,3.738602289E-1
5.222835154E0,-2.258220017E-1,-1.759880036E-1,6.555300206E-2,2.937082735E-1
5.227845909E0,-2.862280011E-1,-1.355679929E-1,-6.090800092E-2,3.225134631E-1
5.232856755E0,-3.130260110E-1,-8.462599665E-2,-8.928900212E-2,3.363322297E-1
5.237867530E0,-3.167659938E-1,-1.641600020E-2,-4.594999924E-2,3.205020785E-1
5.242878223E0,-2.747389972E-1,5.437700078E-2,2.598400041E-2,2.812712980E-1
5.247888990E0,-1.996569932E-1,1.184879988E-1,9.300199896E-2,2.501033638E-1
5.252899832E0,-1.103740036E-1,1.551329941E-1,1.431619972E-1,2.382100417E-1
5.257910526E0,-1.874100044E-2,1.697349995E-1,1.501650065E-1,2.273999216E-1
5.262921303E0,3.589199856E-2,1.559910029E-1,1.356139928E-1,2.097917625E-1
5.267932072E0,5.929899961E-2,1.170879975E-1,6.844799966E-2,1.480239817E-1
5.272942841E0,6.379400194E-2,8.397600055E-2,-2.261099964E-2,1.078559255E-1
5.277953596E0,4.493699968E-2,7.510600239E-2,-9.211000055E-2,1.270610001E-1
5.282964366E0,7.896999829E-3,8.045200258E-2,-1.472270042E-1,1.679603468E-1
5.287975150E0,-1.674799994E-2,8.111900091E-2,-1.688279957E-1,1.880523330E-1
5.292985920E0,-3.885599971E-2,8.878099918E-2,-1.712860018E-1,1.968012930E-1
5.297996473E0,-5.172799900E-2,7.538700104E-2,-1.713480055E-1,1.942141210E-1
5.303007240E0,-4.639799893E-2,4.171299934E-2,-1.953320056E-1,2.050544831E-1
5.308018009E0,-4.424399883E-2,1.170600019E-2,-2.193060070E-1,2.240305483E-1
5.313028788E0,-2.417499945E-2,-2.627499960E-2,-1.786639988E-1,1.821966813E-1
5.318039558E0,1.333799958E-2,-3.034500033E-2,-7.822900265E-2,8.496174512E-2
5.323050327E0,4.471199960E-2,-2.491199970E-2,1.977699995E-2,5.487167178E-2
5.328061067E0,6.325100362E-2,-2.678599954E-2,9.862300009E-2,1.201860032E-1
5.333071836E0,7.911799848E-2,-3.330799937E-2,1.750790030E-1,1.949916352E-1
5.338082605E0,7.395999879E-2,-4.906800017E-2,2.060990036E-1,2.243981937E-1
5.343093366E0,4.164500162E-2,-6.686600298E-2,2.730639875E-1,2.841994190E-1
5.348104136E0,-5.305000115E-3,-8.206599951E-2,3.376959860E-1,3.475651742E-1
5.353114915E0,-6.185000017E-2,-1.065709963E-1,4.191389978E-1,4.368756107E-1
5.358125608E0,-8.586800098E-2,-1.425350010E-1,4.671300054E-1,4.958830326E-1
5.363136452E0,-9.208200127E-2,-1.897689998E-1,4.720970094E-1,5.170753858E-1
5.368147141E0,-4.360700026E-2,-2.340790033E-1,4.459660053E-1,5.055494320E-1
5.373157908E0,4.411400110E-2,-2.428019941E-1,3.671540022E-1,4.423809611E-1
5.378168692E0,9.552200139E-2,-2.468010038E-1,2.117599994E-1,3.389358134E-1
5.383179462E0,1.206919998E-1,-2.296770066E-1,7.550299913E-2,2.702198902E-1
5.388190231E0,1.131870002E-1,-1.825180054E-1,-4.401800036E-2,2.192297964E-1
5.393200990E0,8.090200275E-2,-1.248010024E-1,-1.396210045E-1,2.039961989E-1
5.398211759E0,4.995499924E-2,-2.661599964E-2,-2.352779955E-1,2.419910092E-1
5.403222515E0,5.011900142E-2,5.758300051E-2,-3.501420021E-1,3.583673226E-1
5.408233285E0,9.148799628E-2,1.328960061E-1,-4.028890133E-1,4.339941923E-1
5.413244040E0,1.538839936E-1,2.041279972E-1,-3.959290087E-1,4.712836754E-1
5.418254809E0,2.504900098E-1,2.435369939E-1,-3.890799880E-1,5.229137113E-1
5.423265578E0,3.387640119E-1,2.776809931E-1,-3.368459940E-1,5.525694647E-1
5.428276333E0,3.842670023E-1,2.765359879E-1,-2.774420083E-1,5.487324937E-1
5.433287102E0,3.860220015E-1,2.270279974E-1,-2.084069997E-1,4.939515915E-1
5.438297876E0,3.476609886E-1,1.815109998E-1,-9.622500092E-2,4.038237943E-1
5.443308645E0,2.870520055E-1,1.279730052E-1,4.475599900E-2,3.174571520E-1
5.448319414E0,1.911180019E-1,8.981700242E-2,2.025749981E-1,2.926257242E-1
5.453330158E0,1.120409966E-1,5.476300046E-2,3.652429879E-1,3.859463840E-1
5.458340699E0,5.893800035E-2,2.478400059E-2,5.112010241E-1,5.151838716E-1
5.463351682E0,4.065199941E-2,-1.197999995E-2,5.949749947E-1,5.964824807E-1
5.468362222E0,6.919999723E-4,-5.301300064E-2,6.548680067E-1,6.570106265E-1
5.473372994E0,-3.241800144E-2,-1.098460034E-1,6.669620275E-1,6.767240335E-1
5.478383764E0,-7.051300257E-2,-1.635700017E-1,6.910769939E-1,7.136628339E-1
5.483394543E0,-1.067129970E-1,-2.142760009E-1,7.080659866E-1,7.474351542E-1
5.488405312E0,-1.386899948E-1,-2.413650006E-1,7.274749875E-1,7.789170916E-1
5.493416071E0,-1.526309997E-1,-2.453760058E-1,7.038189769E-1,7.608329373E-1
5.498426841E0,-1.602710038E-1,-2.454369962E-1,6.371039748E-1,7.013042054E-1
5.503437610E0,-1.430680007E-1,-2.576529980E-1,5.081980228E-1,5.874680848E-1
5.508448384E0,-1.344970018E-1,-2.743000090E-1,3.625920117E-1,4.741338475E-1
5.513459153E0,-1.346710026E-1,-2.742989957E-1,2.361630052E-1,3.861983727E-1
5.518469876E0,-1.297370046E-1,-2.370360047E-1,9.776499867E-2,2.873599708E-1
5.523480643E0,-9.698600322E-2,-1.543059945E-1,-4.310400039E-2,1.872820857E-1
5.528491403E0,-5.412700027E-2,-5.533999950E-2,-1.864909977E-1,2.019186468E-1
5.533502172E0,-2.259999979E-3,6.393399835E-2,-2.941649854E-1,3.010410311E-1
5.538512942E0,5.119600147E-2,1.563279927E-1,-2.967199981E-1,3.392671943E-1
5.543523706E0,1.201400012E-1,2.667270005E-1,-2.731460035E-1,4.002319976E-1
5.548534475E0,1.880159974E-1,3.318820000E-1,-1.779229939E-1,4.208946055E-1
5.553545234E0,2.114550024E-1,3.369300067E-1,-1.332399994E-2,3.980107743E-1
5.558556004E0,2.343849987E-1,3.139120042E-1,1.345520020E-1,4.142237502E-1
5.563566774E0,2.575699985E-1,2.404060066E-1,2.896899879E-1,4.561333590E-1
5.568577544E0,2.377769947E-1,1.432500035E-1,4.234369993E-1,5.063174450E-1
5.573588313E0,1.952559948E-1,2.779100090E-2,4.736090004E-1,5.130328728E-1
5.578599082E0,1.423210055E-1,-5.202399939E-2,5.311220288E-1,5.523154666E-1
5.583609851E0,5.797100067E-2,-1.112250015E-1,5.672680140E-1,5.809687062E-1
5.588620620E0,-3.381099924E-2,-1.481650025E-1,6.203330159E-1,6.386776200E-1
5.593631154E0,-1.281040013E-1,-1.890839934E-1,6.329190135E-1,6.728669032E-1
5.598642152E0,-2.062579989E-1,-2.431789935E-1,5.787169933E-1,6.607508936E-1
5.603652924E0,-2.410680056E-1,-2.612150013E-1,4.983629882E-1,6.121378344E-1
5.608663703E0,-2.646000087E-1,-2.394199967E-1,4.372850060E-1,5.644052409E-1
5.613674472E0,-2.287610024E-1,-1.743199974E-1,3.355560005E-1,4.419467017E-1
5.618685035E0,-1.664160043E-1,-8.815000206E-2,2.792240083E-1,3.367948280E-1
5.623695802E0,-1.017799973E-1,-6.046200171E-2,2.323980033E-1,2.608134457E-1
5.628706571E0,-5.145100132E-2,-4.309999943E-2,1.974679977E-1,2.085627618E-1
5.633717340E0,6.029000040E-3,3.489000024E-3,1.480779946E-1,1.482417433E-1
5.638728035E0,4.923100024E-2,2.055500075E-2,1.440629959E-1,1.536240418E-1
5.643738812E0,9.046100080E-2,-7.519000210E-3,1.591259986E-1,1.831961011E-1
5.648749658E0,1.136289984E-1,-6.079300120E-2,2.291949987E-1,2.629404604E-1
5.653760438E0,1.220510006E-1,-1.200139970E-1,2.705680132E-1,3.201669189E-1
5.658771208E0,1.142169982E-1,-1.804890037E-1,2.952570021E-1,3.644152857E-1
5.663781977E0,8.871900290E-2,-2.003140002E-1,3.033150136E-1,3.741614059E-1
5.668792751E0,2.340500057E-2,-2.059759945E-1,2.924689949E-1,3.584857282E-1
5.673803520E0,-1.173299998E-1,-2.070730031E-1,2.054889947E-1,3.144380454E-1
5.678814199E0,-2.614279985E-1,-1.917659938E-1,1.759000006E-3,3.242250590E-1
5.683824966E0,-3.767229915E-1,-1.648769975E-1,-2.062930018E-1,4.600667769E-1
5.688835744E0,-4.599170089E-1,-1.567199975E-1,-4.282999933E-1,6.477080337E-1
5.693846513E0,-4.753049910E-1,-1.108309999E-1,-6.428999901E-1,8.071671093E-1
5.698857278E0,-3.955360055E-1,-2.128100023E-2,-8.240870237E-1,9.143418591E-1
5.703868047E0,-2.661170065E-1,8.991999924E-2,-9.290350080E-1,9.705719517E-1
5.708878816E0,-1.191420034E-1,1.873780042E-1,-9.770209789E-1,1.001935790E0
5.713889571E0,4.915200174E-2,2.600429952E-1,-9.633979797E-1,9.990865558E-1
5.718900341E0,2.077279985E-1,3.202250004E-1,-8.618739843E-1,9.426143098E-1
5.723911116E0,3.521229923E-1,3.844130039E-1,-7.035470009E-1,8.756382482E-1
5.728921886E0,4.642660022E-1,4.199399948E-1,-4.955039918E-1,7.983838212E-1
5.733932425E0,5.366799831E-1,4.618619978E-1,-2.662470043E-1,7.564584434E-1
5.738943192E0,5.503849983E-1,4.563759863E-1,-7.775700092E-2,7.192001380E-1
5.743953961E0,5.171430111E-1,3.905810118E-1,2.229099907E-2,6.484499282E-1
5.748964961E0,5.176110268E-1,3.288570046E-1,4.818399996E-2,6.151339711E-1
5.753975502E0,5.322899818E-1,3.012979925E-1,6.211299822E-2,6.147935666E-1
5.758986500E0,5.098599792E-1,2.908140123E-1,7.855799794E-2,5.922004282E-1
5.763997271E0,4.053199887E-1,2.692529857E-1,7.144299895E-2,4.918186309E-1
5.769007809E0,2.236530036E-1,1.722429991E-1,7.444799691E-2,2.919431811E-1
5.774018572E0,3.214100003E-2,2.288700081E-2,7.799600065E-2,8.740843670E-2
5.779029341E0,-1.300989985E-1,-1.168690026E-1,1.274320036E-1,2.163862952E-1
5.784040110E0,-2.851940095E-1,-2.499240041E-1,2.203460038E-1,4.385772364E-1
5.789050879E0,-3.913930058E-1,-3.489330113E-1,2.824909985E-1,5.956038076E-1
5.794061648E0,-4.312700033E-1,-3.987730145E-1,3.185400069E-1,6.681926884E-1
5.799072343E0,-4.203430116E-1,-4.172140062E-1,2.877269983E-1,6.584395188E-1
5.804083187E0,-3.853229880E-1,-3.933160007E-1,1.972099990E-1,5.848615778E-1
5.809093958E0,-3.460229933E-1,-3.353750110E-1,1.043599993E-1,4.930510312E-1
5.814104727E0,-3.168190122E-1,-2.674019933E-1,1.634499989E-2,4.149039304E-1
5.819115492E0,-3.137690127E-1,-2.222660035E-1,-8.590900153E-2,3.939968606E-1
5.824126184E0,-2.735379934E-1,-2.177200019E-1,-1.953999996E-1,4.005074193E-1
5.829136951E0,-1.905570030E-1,-1.598220021E-1,-2.859829962E-1,3.790004194E-1
5.834147721E0,-1.178290024E-1,-1.058119982E-1,-3.122619987E-1,3.501248472E-1
5.839158490E0,-8.090499789E-2,-9.266799688E-2,-3.148570061E-1,3.380353689E-1
5.844169269E0,-6.469500065E-2,-1.053220034E-1,-2.506200075E-1,2.794432960E-1
5.849180038E0,-6.121199951E-2,-1.083289981E-1,-2.247419953E-1,2.568872227E-1
5.854190807E0,-8.163399994E-2,-1.111970022E-1,-1.677310020E-1,2.171694552E-1
5.859201586E0,-1.371529996E-1,-9.781599790E-2,-7.229500264E-2,1.833179810E-1
5.864212356E0,-2.035450041E-1,-7.796899974E-2,8.792799711E-2,2.350341811E-1
5.869223126E0,-2.265820056E-1,-4.747299850E-2,1.860219985E-1,2.969802599E-1
5.874233886E0,-2.305189967E-1,-4.368599877E-2,2.697899938E-1,3.575389700E-1
5.879244655E0,-2.041019946E-1,-4.502400011E-2,3.008460104E-1,3.663237732E-1
5.884255419E0,-1.762280017E-1,-3.036900051E-2,3.629170060E-1,4.045829186E-1
5.889266188E0,-1.675100029E-1,4.410999827E-3,3.723860085E-1,4.083508263E-1
5.894276723E0,-1.468909979E-1,6.116899848E-2,3.555769920E-1,3.895556557E-1
5.899287490E0,-1.007990018E-1,8.834200352E-2,3.626140058E-1,3.865923765E-1
5.904298259E0,-4.148000106E-2,7.969299704E-2,3.742980063E-1,3.849292945E-1
5.909309037E0,4.936400056E-2,8.974500000E-2,3.665759861E-1,3.806165041E-1
5.914319807E0,1.661199927E-1,1.479759961E-1,3.584890068E-1,4.219088946E-1
5.919330591E0,2.565880120E-1,1.902340055E-1,3.548749983E-1,4.774543425E-1
5.924341360E0,3.105210066E-1,2.168170065E-1,2.889899909E-1,4.763907269E-1
5.929352129E0,3.406789899E-1,2.305060029E-1,1.059110016E-1,4.247497284E-1
5.934362899E0,3.240689933E-1,1.946859956E-1,-1.057099998E-1,3.925531217E-1
5.939373669E0,2.525759935E-1,1.644130051E-1,-3.241179883E-1,4.425819010E-1
5.944384453E0,1.574649960E-1,1.514330059E-1,-5.109919906E-1,5.557337444E-1
5.949395222E0,6.905700266E-2,1.784570068E-1,-6.520559788E-1,6.795533624E-1
5.954405991E0,-4.075999837E-3,1.842889935E-1,-7.594479918E-1,7.814987519E-1
5.959416765E0,-7.659699768E-2,1.350229979E-1,-8.260869980E-1,8.405462737E-1
5.964427534E0,-1.556800008E-1,5.582600087E-2,-8.137210011E-1,8.303581593E-1
5.969438241E0,-1.907429993E-1,-2.686299942E-2,-6.867979765E-1,7.132993572E-1
5.974449009E0,-1.834120005E-1,-9.921900183E-2,-4.695059955E-1,5.137316927E-1
5.979459855E0,-1.159700006E-1,-1.572660059E-1,-2.218939960E-1,2.956663375E-1
5.984470564E0,-1.969300024E-2,-1.739300042E-1,3.689900041E-2,1.788882245E-1
5.989481331E0,7.782000303E-2,-2.179140002E-1,2.759349942E-1,3.601146836E-1
5.994492096E0,1.593769938E-1,-2.676959932E-1,4.620319903E-1,5.572573292E-1
5.999502865E0,1.961950064E-1,-2.696799934E-1,5.621140003E-1,6.535992111E-1
6.004513634E0,2.176360041E-1,-2.414940000E-1,5.810890198E-1,6.658447501E-1
6.009524403E0,1.943729967E-1,-2.165890038E-1,5.192480087E-1,5.952395761E-1
6.014535173E0,1.439960003E-1,-1.972129941E-1,3.743360043E-1,4.469398810E-1
6.019545722E0,8.554899693E-2,-1.621340066E-1,1.559229940E-1,2.406616859E-1
6.024556489E0,-2.968559861E-1,-1.619819999E-1,-1.509453058E0,1.546871093E0
6.029567264E0,-4.397610128E-1,-1.808499917E-2,-2.035851955E0,2.082885018E0
6.034578033E0,-3.947150111E-1,2.806200087E-2,-1.283077955E0,1.342712350E0
6.039588788E0,-1.090240031E-1,2.199629992E-1,-7.045930028E-1,7.461375569E-1
6.044599557E0,1.281850040E-1,3.267939985E-1,-3.890230060E-1,5.239891333E-1
6.049610326E0,1.790979952E-1,3.228429854E-1,-1.555559933E-1,4.006262000E-1
6.054621081E0,2.470850050E-1,3.776119947E-1,-1.022349969E-1,4.627027262E-1
6.059631851E0,2.928400040E-1,4.106040001E-1,-1.905419976E-1,5.391262984E-1
6.064642635E0,2.849709988E-1,4.025669992E-1,-2.574349940E-1,5.563644804E-1
6.069653404E0,2.226720005E-1,3.577249944E-1,-2.309059948E-1,4.804868051E-1
6.074664173E0,1.721359938E-1,3.053260148E-1,-9.435500205E-2,3.629843551E-1
6.079674942E0,1.050259992E-1,1.711020023E-1,1.211069971E-1,2.344637722E-1
6.084685711E0,4.750499874E-2,5.462300032E-2,4.274390042E-1,4.335256617E-1
6.089696471E0,-3.748400137E-2,-4.541999847E-2,7.530840039E-1,7.553830443E-1
6.094707240E0,-1.724919975E-1,-1.811130047E-1,7.037910223E-1,7.469117838E-1
6.099718009E0,-3.256770074E-1,-3.668819964E-1,2.608489990E-1,5.556168759E-1
6.104728778E0,-4.622029960E-1,-4.883190095E-1,-9.730300307E-2,6.793783475E-1
6.109739472E0,-5.379459858E-1,-5.909060240E-1,-2.396170050E-1,8.342494363E-1
6.114750322E0,-5.767809749E-1,-6.335269809E-1,-2.214380056E-1,8.849110231E-1
