"Time (s)","Linear Acceleration x (m/s^2)","Linear Acceleration y (m/s^2)","Linear Acceleration z (m/s^2)","Absolute acceleration (m/s^2)"
2.731597100E-2,-4.362789989E-1,-4.337019920E-1,-3.563989997E-1,7.109550124E-1
3.232674000E-2,-6.892099977E-2,-1.893659979E-1,6.462000310E-2,2.116254478E-1
3.733750900E-2,3.418129981E-1,5.914700031E-2,5.697399974E-1,6.670368490E-1
4.234827900E-2,7.287780046E-1,2.696129978E-1,9.788799882E-1,1.249805817E0
4.735904800E-2,1.028321981E0,4.387260079E-1,1.353953958E0,1.755880955E0
5.236981700E-2,1.155388951E0,5.542269945E-1,1.625213027E0,2.069639721E0
5.738057700E-2,1.173262000E0,6.283259988E-1,1.771335006E0,2.215618420E0
6.239134700E-2,1.151582956E0,5.821400285E-1,1.739663959E0,2.165978072E0
6.740211600E-2,1.106863022E0,4.901559949E-1,1.637627959E0,2.036473418E0
7.241288500E-2,1.113260031E0,4.629189968E-1,1.445848942E0,1.882583612E0
7.742365400E-2,1.028246045E0,3.533740044E-1,1.172220945E0,1.598832406E0
8.243442400E-2,8.300639987E-1,1.620640010E-1,9.624670148E-1,1.281254751E0
8.744518400E-2,4.911459982E-1,-1.777729988E-1,8.323349953E-1,9.826541482E-1
9.245595400E-2,-3.297499940E-2,-9.851149917E-1,7.974939942E-1,1.267886260E0
9.746672300E-2,-1.407269984E-1,-1.151357055E0,2.289309949E-1,1.182301381E0
1.024774780E-1,-4.542559981E-1,-1.141651034E0,-1.105989963E-1,1.233672458E0
1.074884770E-1,-8.607869744E-1,-1.222602010E0,-1.369570047E-1,1.501488299E0
1.124990120E-1,-9.700719714E-1,-1.223322988E0,-1.673469990E-1,1.570211381E0
1.175097790E-1,-7.911930084E-1,-1.144029975E0,-5.267530084E-1,1.487366697E0
1.225205540E-1,-5.800939798E-1,-9.798169732E-1,-8.825139999E-1,1.440618369E0
1.275313230E-1,-4.783900082E-1,-6.896070242E-1,-6.972129941E-1,1.091109897E0
1.325420820E-1,-3.897730112E-1,-3.456619978E-1,-7.248499990E-2,5.259841178E-1
1.375528510E-1,-1.006980017E-1,-8.458500355E-2,2.717100084E-1,3.018626161E-1
1.425636020E-1,2.181690037E-1,7.260999829E-2,3.220419884E-1,3.957031315E-1
1.475743720E-1,4.484570026E-1,1.886699945E-1,2.468869984E-1,5.455852271E-1
1.525851420E-1,6.453999877E-1,2.971479893E-1,1.205039993E-1,7.206658626E-1
1.575958950E-1,8.319380283E-1,3.984209895E-1,-4.307200015E-2,9.234258850E-1
1.626066640E-1,9.583899975E-1,5.002419949E-1,-1.768160015E-1,1.095453029E0
1.676174140E-1,1.011458993E0,5.733850002E-1,-2.331809998E-1,1.185830102E0
1.726281830E-1,1.006544948E0,6.542369723E-1,-2.527259886E-1,1.226796305E0
1.776389570E-1,9.471560121E-1,7.199249864E-1,-2.307559997E-1,1.211876573E0
1.826497260E-1,8.322719932E-1,7.172240019E-1,-1.963129938E-1,1.116076042E0
1.876604950E-1,6.705800295E-1,6.785060167E-1,-1.399970055E-1,9.641821157E-1
1.926712690E-1,5.666829944E-1,6.222599745E-1,-1.670770049E-1,8.580511742E-1
1.976820380E-1,4.888449907E-1,5.391010046E-1,-2.610549927E-1,7.731423073E-1
2.026928020E-1,3.896999955E-1,4.326359928E-1,-3.481259942E-1,6.784037858E-1
2.077035720E-1,2.789370120E-1,3.215070069E-1,-3.284910023E-1,5.376606278E-1
2.127143420E-1,1.759350002E-1,1.669459939E-1,-2.698400021E-1,3.628191228E-1
2.177251070E-1,1.343709975E-1,-8.341299742E-2,-1.949480027E-1,2.510338959E-1
2.227358760E-1,1.109120026E-1,-3.267570138E-1,-1.157919988E-1,3.639772045E-1
2.277466540E-1,-1.829699986E-2,-5.044059753E-1,4.994900152E-2,5.072031850E-1
2.327574230E-1,-2.035769969E-1,-6.582469940E-1,2.288579941E-1,7.260225067E-1
2.377681920E-1,-3.362520039E-1,-7.849709988E-1,4.212259948E-1,9.521954724E-1
2.427789710E-1,-3.635669947E-1,-8.352789879E-1,5.584310293E-1,1.068511657E0
2.477897400E-1,-4.018410146E-1,-8.329849839E-1,6.078990102E-1,1.106743598E0
2.528005090E-1,-4.306449890E-1,-7.657150030E-1,7.016850114E-1,1.124338218E0
2.578112920E-1,-4.315049946E-1,-6.379749775E-1,7.948579788E-1,1.106800722E0
2.628220610E-1,-3.793079853E-1,-4.986459911E-1,8.061310053E-1,1.020965019E0
2.678328310E-1,-3.079710007E-1,-3.528470099E-1,8.001019955E-1,9.270978119E-1
2.728435160E-1,-2.013749927E-1,-1.986590028E-1,7.480589747E-1,7.997559107E-1
2.778542830E-1,-5.128899962E-2,-2.960000001E-2,6.547620296E-1,6.574344355E-1
2.828650520E-1,1.270429939E-1,1.559749991E-1,5.059369802E-1,5.444633602E-1
2.878758410E-1,2.769890130E-1,2.972219884E-1,3.276099861E-1,5.219119913E-1
2.928866100E-1,3.716000021E-1,3.975630105E-1,8.624099940E-2,5.509813234E-1
2.978973930E-1,3.934499919E-1,4.653669894E-1,-1.799789965E-1,6.354225131E-1
3.029082390E-1,3.694930077E-1,4.998529851E-1,-4.259969890E-1,7.535592373E-1
3.079190110E-1,3.070990145E-1,5.122500062E-1,-6.068459749E-1,8.514528236E-1
3.129297030E-1,2.228209972E-1,4.859580100E-1,-6.898810267E-1,8.727773000E-1
3.179404700E-1,1.561190039E-1,4.491559863E-1,-6.519680023E-1,8.069550914E-1
3.229512300E-1,1.158050001E-1,4.026260078E-1,-5.461279750E-1,6.883126217E-1
3.279620000E-1,1.312920004E-1,2.954039872E-1,-4.210219979E-1,5.308112920E-1
3.329727640E-1,5.473199859E-2,1.706389934E-1,-2.834280133E-1,3.353277449E-1
3.379835330E-1,-4.595400020E-2,2.434999915E-3,-1.548759937E-1,1.615681676E-1
3.429943790E-1,-1.648350060E-1,-1.693149954E-1,-7.321099937E-2,2.473822898E-1
3.480050830E-1,-1.778260022E-1,-3.359949887E-1,-2.412400022E-2,3.809155902E-1
3.530158500E-1,-2.223269939E-1,-4.122479856E-1,-2.073800005E-2,4.688366011E-1
3.580266190E-1,-3.373079896E-1,-5.005459785E-1,2.321599983E-2,6.040380279E-1
3.630373880E-1,-4.556379914E-1,-5.615500212E-1,3.640500084E-2,7.240647275E-1
3.680481780E-1,-5.747200251E-1,-6.080409884E-1,-1.198399998E-2,8.367559782E-1
3.730589470E-1,-6.834139824E-1,-6.428419948E-1,-6.450399756E-2,9.404580093E-1
3.780697160E-1,-7.709550261E-1,-6.311990023E-1,-8.508499712E-2,1.000011645E0
3.830804890E-1,-7.989640236E-1,-5.650889874E-1,-7.122600079E-2,9.811942814E-1
3.880912590E-1,-7.345929742E-1,-4.250479937E-1,-5.630299821E-2,8.505660834E-1
3.931020290E-1,-6.268659830E-1,-2.735069990E-1,-2.133000083E-2,6.842674975E-1
3.981128040E-1,-4.858309925E-1,-1.457580030E-1,-1.444999967E-2,5.074307353E-1
4.031235730E-1,-3.633730114E-1,-2.234300040E-2,-2.608500049E-2,3.649925784E-1
4.081343470E-1,-2.773559988E-1,5.523800105E-2,-6.129100174E-2,2.893685776E-1
4.131451160E-1,-2.103029937E-1,1.091580018E-1,-1.273189932E-1,2.689850266E-1
4.181558950E-1,-1.223020032E-1,1.476480067E-1,-1.599700004E-1,2.496960450E-1
4.231666640E-1,-2.083599940E-2,1.830579937E-1,-1.857119948E-1,2.615976164E-1
4.281774230E-1,7.349900156E-2,1.783249974E-1,-2.334579974E-1,3.028275821E-1
4.331881920E-1,1.706539989E-1,1.767970026E-1,-2.673319876E-1,3.631065395E-1
4.381987130E-1,2.242379934E-1,2.134419978E-1,-2.940289974E-1,4.269580956E-1
4.432094800E-1,3.027260005E-1,2.456009984E-1,-2.826830149E-1,4.815314826E-1
4.482202300E-1,4.492090046E-1,2.803089917E-1,-2.503150105E-1,5.856786364E-1
4.532309990E-1,4.873839915E-1,2.585529983E-1,-2.828519940E-1,6.199984344E-1
4.582417680E-1,4.684869945E-1,1.867150068E-1,-2.633650005E-1,5.689496298E-1
4.632525520E-1,3.898240030E-1,7.329200208E-2,-2.087090015E-1,4.482119122E-1
4.682633220E-1,2.485139966E-1,-6.461499631E-2,-1.905380040E-1,3.197483936E-1
4.732740860E-1,2.724800073E-2,-1.750420034E-1,-1.175059974E-1,2.125789640E-1
4.782848550E-1,-1.931169927E-1,-2.867070138E-1,-1.645999961E-3,3.456845296E-1
4.832956140E-1,-3.945469856E-1,-4.116500020E-1,9.233500063E-2,5.776234070E-1
4.883063840E-1,-5.716419816E-1,-5.151100159E-1,2.100169957E-1,7.976340151E-1
4.933171400E-1,-6.908190250E-1,-5.630930066E-1,3.420760036E-1,9.546311600E-1
4.983279100E-1,-7.397969961E-1,-5.529279709E-1,4.888179898E-1,1.044974623E0
5.033386790E-1,-7.225679755E-1,-5.052080154E-1,6.049500108E-1,1.069254008E0
5.083496820E-1,-6.197689772E-1,-4.140450060E-1,7.503489852E-1,1.057624911E0
5.133602230E-1,-4.100509882E-1,-2.693139911E-1,8.749129772E-1,1.003067573E0
5.183709900E-1,-1.403709948E-1,-9.070300311E-2,1.021800995E0,1.035378348E0
5.233817590E-1,1.647180021E-1,1.304849982E-1,1.183812976E0,1.202319224E0
5.283925380E-1,4.342890084E-1,3.538149893E-1,1.334673047E0,1.447461271E0
5.334033070E-1,6.458200216E-1,5.532199740E-1,1.424224019E0,1.658779641E0
5.384140870E-1,7.763609886E-1,7.028380036E-1,1.418948054E0,1.763556414E0
5.434248560E-1,8.505390286E-1,7.984740138E-1,1.318750024E0,1.760704125E0
5.484355510E-1,8.494340181E-1,8.263880014E-1,1.094761968E0,1.613368850E0
5.534463990E-1,7.967330217E-1,8.187100291E-1,8.280320168E-1,1.410924038E0
5.584571700E-1,6.750370264E-1,7.493990064E-1,5.375490189E-1,1.142905423E0
5.634679150E-1,5.616840124E-1,6.534100175E-1,2.616510093E-1,9.004969914E-1
5.684786840E-1,4.651759863E-1,5.767430067E-1,4.069700092E-2,7.420764380E-1
5.734894540E-1,3.986369967E-1,4.959810078E-1,-1.663050056E-1,6.576974762E-1
5.785002140E-1,3.702929914E-1,3.999710083E-1,-3.501909971E-1,6.478637522E-1
5.835109060E-1,3.393650055E-1,3.290230036E-1,-5.252529979E-1,7.066225694E-1
5.885217500E-1,3.013130128E-1,2.812429965E-1,-5.935339928E-1,7.226131436E-1
5.935325020E-1,2.421499938E-1,2.675209939E-1,-6.336770058E-1,7.292123486E-1
5.985431940E-1,1.898809969E-1,2.893620133E-1,-6.287500262E-1,7.177128696E-1
6.035540380E-1,1.367750019E-1,3.226020038E-1,-5.691729784E-1,6.683841211E-1
6.085647320E-1,7.552800328E-2,3.244310021E-1,-5.124679804E-1,6.112146802E-1
6.135754960E-1,3.611600026E-2,3.140740097E-1,-4.204789996E-1,5.260698035E-1
6.185862650E-1,-1.049999963E-3,2.701799870E-1,-3.507379889E-1,4.427363377E-1
6.235970340E-1,-2.231100015E-2,1.861220002E-1,-2.723639905E-1,3.306377520E-1
6.286078800E-1,2.284999937E-3,7.159700245E-2,-2.309640050E-1,2.418175419E-1
6.336186520E-1,-2.494999906E-3,-1.493499987E-2,-2.379730046E-1,2.384542517E-1
6.386294210E-1,-3.843500093E-2,-8.600299805E-2,-2.381249964E-1,2.560806101E-1
6.436401030E-1,-1.113839969E-1,-1.277740002E-1,-1.856790036E-1,2.514145625E-1
6.486508700E-1,-1.832180023E-1,-1.362109929E-1,-9.957399964E-2,2.490727853E-1
6.536616400E-1,-2.470040023E-1,-1.426970065E-1,-2.760799974E-2,2.865931166E-1
6.586723800E-1,-2.541950047E-1,-1.284909993E-1,7.803100348E-2,2.953199533E-1
6.636831490E-1,-2.249429971E-1,-9.677200019E-2,1.600500047E-1,2.925408962E-1
6.686939080E-1,-1.694190055E-1,-6.651599705E-2,2.518450022E-1,3.107299188E-1
6.737047550E-1,-4.117099941E-2,-3.328600153E-2,3.127090037E-1,3.171591558E-1
6.787154490E-1,1.049169973E-1,-1.749000046E-3,3.498109877E-1,3.652100251E-1
6.837262260E-1,2.666890025E-1,6.527200341E-2,3.658969998E-1,4.574539026E-1
6.887369950E-1,3.998619914E-1,1.436379999E-1,3.467909992E-1,5.484391345E-1
6.937477650E-1,4.981630147E-1,2.328909934E-1,3.022890091E-1,6.275215128E-1
6.987585480E-1,5.438110232E-1,3.259429932E-1,2.396759987E-1,6.778007437E-1
7.037693940E-1,5.637859702E-1,4.224810004E-1,1.327860057E-1,7.169218502E-1
7.087800840E-1,5.472459793E-1,4.550899863E-1,1.942400075E-2,7.120128856E-1
7.137908520E-1,4.907740057E-1,4.695219994E-1,-1.506379992E-1,6.957024071E-1
7.188016210E-1,4.209850132E-1,4.572379887E-1,-3.250519931E-1,7.013941531E-1
7.238123990E-1,3.262799978E-1,4.218859971E-1,-4.611020088E-1,7.050258818E-1
7.288231680E-1,2.113939971E-1,3.619480133E-1,-6.021429896E-1,7.336688397E-1
7.338339380E-1,8.801499754E-2,2.901889980E-1,-7.053800225E-1,7.678002804E-1
7.388447130E-1,-1.385299955E-2,2.170529962E-1,-7.520319819E-1,7.828512059E-1
7.438554830E-1,-9.518399835E-2,1.454090029E-1,-7.375440001E-1,7.577433100E-1
7.488660110E-1,-1.612160057E-1,6.162999943E-2,-6.741459966E-1,6.958891305E-1
7.538770090E-1,-2.032610029E-1,-5.024699867E-2,-5.932599902E-1,6.291241628E-1
7.588877800E-1,-2.455929965E-1,-1.639460027E-1,-4.853209853E-1,5.680938923E-1
7.638983180E-1,-2.280520052E-1,-2.658770084E-1,-3.645969927E-1,5.055979310E-1
7.689090850E-1,-1.684769988E-1,-3.104270101E-1,-2.711530030E-1,4.452789898E-1
7.739200860E-1,-7.708200067E-2,-3.084520102E-1,-1.400279999E-1,3.474077117E-1
7.789306260E-1,-1.467499975E-2,-2.988640070E-1,-3.792199865E-2,3.016175198E-1
7.839416240E-1,2.185600065E-2,-2.562600076E-1,1.072940007E-1,2.786734269E-1
7.889524100E-1,4.284900054E-2,-2.167849988E-1,2.383220047E-1,3.250063853E-1
7.939631790E-1,6.514400244E-2,-1.739690006E-1,3.338409960E-1,3.820455010E-1
7.989737180E-1,1.053609997E-1,-1.676699966E-1,4.055629969E-1,4.513263924E-1
8.039847210E-1,1.309999973E-1,-1.948959976E-1,4.414210021E-1,4.999979503E-1
8.089952610E-1,1.381289959E-1,-2.178210020E-1,4.368219972E-1,5.072859801E-1
8.140060140E-1,1.530790031E-1,-2.156679928E-1,4.254820049E-1,5.009798407E-1
8.190167830E-1,1.618289948E-1,-1.821819991E-1,4.052869976E-1,4.729021619E-1
8.240275660E-1,1.716420054E-1,-1.323889941E-1,3.477079868E-1,4.097421969E-1
8.290383350E-1,1.636469960E-1,-6.230499968E-2,2.505910099E-1,3.057091862E-1
8.340491050E-1,1.542810053E-1,1.592100039E-2,1.642079949E-1,2.258768966E-1
8.390598790E-1,1.412580013E-1,1.137889996E-1,8.391399682E-2,1.998582454E-1
8.440706480E-1,1.387169957E-1,2.054360062E-1,1.196299959E-2,2.481722605E-1
8.490814410E-1,1.257819980E-1,2.838720083E-1,-9.232900292E-2,3.239275736E-1
8.540922110E-1,9.812299907E-2,3.491289914E-1,-2.408940047E-1,4.353723660E-1
8.591030100E-1,9.529799968E-2,3.784359992E-1,-4.030129910E-1,5.609946391E-1
8.641137800E-1,1.159709990E-1,3.872759938E-1,-5.503730178E-1,6.828926905E-1
8.691245490E-1,1.080420017E-1,3.901929855E-1,-7.308400273E-1,8.354943361E-1
8.741353330E-1,9.721799940E-2,3.834359944E-1,-8.945080042E-1,9.780690521E-1
8.791461020E-1,7.625800371E-2,3.518970013E-1,-1.032302022E0,1.093295133E0
8.841568700E-1,1.267400011E-2,2.951700091E-1,-1.106488943E0,1.145252700E0
8.891676390E-1,-9.699500352E-2,1.714009941E-1,-1.091784954E0,1.109405569E0
8.941783940E-1,-2.626659870E-1,4.354999866E-3,-1.017482042E0,1.050848273E0
8.991890880E-1,-4.387499988E-1,-1.917749941E-1,-8.244180083E-1,9.533856839E-1
9.041999320E-1,-5.999090075E-1,-3.865909874E-1,-6.200659871E-1,9.454233112E-1
9.092107080E-1,-7.120559812E-1,-5.647029877E-1,-4.064379930E-1,9.955425791E-1
9.142214780E-1,-7.486720085E-1,-7.439429760E-1,-2.382889986E-1,1.082008583E0
9.192321700E-1,-7.186509967E-1,-9.485800266E-1,-1.370609999E-1,1.197935324E0
9.242429270E-1,-6.209819913E-1,-1.009266019E0,-1.203629971E-1,1.191101919E0
9.292537730E-1,-4.806779921E-1,-1.069406986E0,-3.033900075E-2,1.172861070E0
9.342644680E-1,-2.959310114E-1,-1.071480036E0,3.792800009E-2,1.112242403E0
9.392752300E-1,-8.361700177E-2,-9.571139812E-1,1.285350025E-1,9.693194638E-1
9.442859990E-1,1.607040018E-1,-7.181450129E-1,2.400130033E-1,7.740570247E-1
9.492967680E-1,4.132150114E-1,-4.211310148E-1,3.656120002E-1,6.940966157E-1
9.543076100E-1,6.251770258E-1,-1.236210018E-1,4.814609885E-1,7.987071736E-1
9.593183050E-1,7.373520136E-1,1.323699951E-1,5.969880223E-1,9.579167534E-1
9.643290430E-1,8.054260015E-1,3.127250075E-1,6.662889719E-1,1.091076976E0
9.693398120E-1,8.510000110E-1,4.449230134E-1,7.345280051E-1,1.209003266E0
9.743506060E-1,8.577029705E-1,5.137659907E-1,7.774109840E-1,1.266482419E0
9.793613750E-1,7.750449777E-1,4.811429977E-1,8.015720248E-1,1.214376800E0
9.843721440E-1,6.317309737E-1,3.937770128E-1,7.828490138E-1,1.080276325E0
9.893829130E-1,4.767209888E-1,2.601639926E-1,7.161350250E-1,8.987755995E-1
9.943936820E-1,3.179999888E-1,1.187670007E-1,5.846300125E-1,6.760339081E-1
9.994044660E-1,1.676519960E-1,-4.653900117E-2,3.881570101E-1,4.253691748E-1
1.004415236E0,4.835100099E-2,-1.622360051E-1,2.440769970E-1,2.970385852E-1
1.009426006E0,-5.513700098E-2,-2.476129979E-1,1.500010043E-1,2.947076295E-1
1.014436785E0,-1.364839971E-1,-3.150489926E-1,5.814300105E-2,3.482303229E-1
1.019447554E0,-2.272370011E-1,-3.438560069E-1,2.198999980E-3,4.121631275E-1
1.024458083E0,-2.909559906E-1,-3.466379941E-1,-1.055600028E-2,4.526861126E-1
1.029468850E0,-2.941179872E-1,-3.218320012E-1,8.027999662E-3,4.360569643E-1
1.034479620E0,-2.987560034E-1,-2.934469879E-1,4.122100025E-2,4.207914627E-1
1.039490399E0,-2.765679955E-1,-2.407719940E-1,6.765999645E-2,3.728791820E-1
1.044501399E0,-2.207919955E-1,-1.575469971E-1,9.950199723E-2,2.889131514E-1
1.049511939E0,-1.179890037E-1,-3.066599928E-2,1.130760014E-1,1.662768492E-1
1.054522927E0,-1.350099966E-2,6.901700050E-2,1.608169973E-1,1.755213092E-1
1.059533699E0,8.132100105E-2,1.564230025E-1,2.139080018E-1,2.771964901E-1
1.064544222E0,1.529099941E-1,2.362769991E-1,2.460750043E-1,3.738464850E-1
1.069555220E0,1.974419951E-1,2.856709957E-1,2.786560059E-1,4.452419891E-1
1.074565761E0,2.140080035E-1,2.959690094E-1,2.851519883E-1,4.633667408E-1
1.079576514E0,2.064269930E-1,3.033800125E-1,2.822679877E-1,4.629543739E-1
1.084587514E0,1.920129955E-1,2.871800065E-1,2.578560114E-1,4.310812791E-1
1.089598054E0,1.362729967E-1,2.761330009E-1,2.191009969E-1,3.779219636E-1
1.094608822E0,6.095600128E-2,2.701730132E-1,1.755850017E-1,3.279316758E-1
1.099619591E0,-3.374300152E-2,2.411690056E-1,1.056369990E-1,2.654435062E-1
1.104630360E0,-1.179149970E-1,2.038269937E-1,4.265199974E-2,2.393085518E-1
1.109641129E0,-1.439370066E-1,1.770659983E-1,-8.585999720E-3,2.283504960E-1
1.114651884E0,-1.348699927E-1,1.370829940E-1,-8.642499894E-2,2.108339219E-1
1.119662653E0,-1.480689943E-1,8.724199980E-2,-9.060099721E-2,1.942784967E-1
1.124673422E0,-1.550969929E-1,4.914100096E-2,2.792000072E-3,1.627197297E-1
1.129684201E0,-1.231819987E-1,4.030299932E-2,4.337200150E-2,1.366721152E-1
1.134694971E0,-7.859399915E-2,3.635099903E-2,8.388900012E-2,1.205644067E-1
1.139705971E0,-7.017699629E-2,2.997500077E-2,8.611900359E-2,1.150643049E-1
1.144716511E0,-7.080899924E-2,2.369999886E-3,4.761099815E-2,8.536005165E-2
1.149727278E0,-1.033999994E-1,-1.813500002E-2,-1.716200076E-2,1.063718590E-1
1.154738067E0,-1.443389952E-1,-3.157899901E-2,-7.469700277E-2,1.655615322E-1
1.159748762E0,-1.566340029E-1,-2.604199946E-2,-5.801200122E-2,1.690496640E-1
1.164759630E0,-1.456249952E-1,-4.598100111E-2,-2.957900055E-2,1.555500208E-1
1.169770324E0,-1.630360037E-1,-8.404999971E-2,-3.726999834E-2,1.871742336E-1
1.174781092E0,-1.686750054E-1,-1.817270070E-1,-6.233499944E-2,2.556591768E-1
1.179791924E0,-1.654949933E-1,-2.582120001E-1,-6.875900179E-2,3.143084952E-1
1.184802618E0,-1.654330045E-1,-3.047949970E-1,-6.111999974E-2,3.521416242E-1
1.189813462E0,-1.612869948E-1,-2.922129929E-1,-5.572799966E-2,3.383896243E-1
1.194824147E0,-1.528919935E-1,-2.430139929E-1,-5.713300034E-2,2.927386926E-1
1.199834914E0,-1.285640001E-1,-1.693519950E-1,1.605699956E-2,2.132290495E-1
1.204845678E0,-1.161660030E-1,-9.800100327E-2,3.236100078E-2,1.553897399E-1
1.209856447E0,-9.446900338E-2,-1.468999963E-2,9.468600154E-2,1.345571536E-1
1.214867216E0,-5.000200123E-2,6.614100188E-2,1.479839981E-1,1.696292897E-1
1.219877976E0,3.724699840E-2,1.562020034E-1,2.066390067E-1,2.616984598E-1
1.224888745E0,1.382859945E-1,2.016160041E-1,2.703740001E-1,3.645190383E-1
1.229899510E0,2.436109930E-1,1.987490058E-1,3.102149963E-1,4.416795526E-1
1.234910356E0,3.392109871E-1,1.860499978E-1,3.500699997E-1,5.217544443E-1
1.239921051E0,4.329110086E-1,1.592880040E-1,4.041930139E-1,6.133160703E-1
1.244931817E0,5.434910059E-1,1.070410013E-1,4.796279967E-1,7.327231842E-1
1.249942586E0,6.403480172E-1,8.809100091E-2,5.766469836E-1,8.662143795E-1
1.254953355E0,7.478410006E-1,1.738319993E-1,7.150809765E-1,1.049201853E0
1.259964125E0,8.528479934E-1,3.383620083E-1,8.978360295E-1,1.283724302E0
1.264974665E0,9.569640160E-1,4.374729991E-1,1.358261943E0,1.718149661E0
1.269985663E0,1.023326039E0,6.084219813E-1,1.548985004E0,1.953644808E0
1.274996444E0,1.046390057E0,7.461150289E-1,1.479596019E0,1.959802073E0
1.280007214E0,9.639149904E-1,7.720170021E-1,1.336691022E0,1.819858579E0
1.285017752E0,8.289740086E-1,7.196490169E-1,1.144217014E0,1.585662382E0
1.290028519E0,6.317690015E-1,5.601850152E-1,8.156039715E-1,1.173945979E0
1.295039519E0,3.553240001E-1,2.799699903E-1,3.668299913E-1,5.824110087E-1
1.300050296E0,-2.893799916E-2,-6.326500326E-2,-1.643850058E-1,1.785001361E-1
1.305061065E0,-4.317950010E-1,-3.588579893E-1,-6.608200073E-1,8.671269005E-1
1.310071617E0,-8.447210193E-1,-6.116539836E-1,-1.080549955E0,1.501753110E0
1.315082385E0,-1.204182029E0,-7.392699718E-1,-1.352800012E0,1.956180544E0
1.320093154E0,-1.486722946E0,-8.011950254E-1,-1.441841960E0,2.220623071E0
1.325103947E0,-1.675457001E0,-7.925900221E-1,-1.405159950E0,2.325904037E0
1.330114716E0,-1.714892983E0,-7.354930043E-1,-1.252202988E0,2.247180506E0
1.335125486E0,-1.589169025E0,-6.296420097E-1,-9.064559937E-1,1.934830670E0
1.340136241E0,-1.376194954E0,-4.937849939E-1,-6.778920293E-1,1.611605961E0
1.345147010E0,-1.122213960E0,-3.760519922E-1,-4.518370032E-1,1.266860667E0
1.350157779E0,-8.324440122E-1,-2.840160131E-1,-2.930009961E-1,9.270802084E-1
1.355168549E0,-5.145009756E-1,-1.498229951E-1,-1.006359980E-1,5.452392024E-1
1.360179289E0,-1.750939935E-1,1.554900035E-2,8.250900358E-2,1.941839686E-1
1.365190059E0,1.631630063E-1,1.853190064E-1,2.159519941E-1,3.280252498E-1
1.370200828E0,4.246149957E-1,3.214299977E-1,2.520439923E-1,5.891869924E-1
1.375211602E0,5.954489708E-1,4.191919863E-1,1.216289997E-1,7.382919557E-1
1.380222371E0,6.618729830E-1,5.065389872E-1,8.775400370E-2,8.380682289E-1
1.385233140E0,6.550369859E-1,5.211979747E-1,5.187100172E-2,8.386962397E-1
1.390243914E0,5.726040006E-1,5.118029714E-1,1.872700080E-2,7.682241363E-1
1.395254683E0,4.352729917E-1,4.739629924E-1,-6.432799995E-2,6.467160018E-1
1.400265452E0,2.885040045E-1,3.989729881E-1,-1.640519947E-1,5.189673042E-1
1.405276216E0,1.555310041E-1,2.903530002E-1,-2.640739977E-1,4.221727540E-1
1.410286985E0,1.500099991E-2,1.556040049E-1,-4.219110012E-1,4.499405841E-1
1.415297754E0,-1.187769994E-1,1.159999985E-2,-6.352109909E-1,6.463246387E-1
1.420308529E0,-2.510850132E-1,-1.385200024E-1,-8.180760145E-1,8.668793690E-1
1.425319299E0,-3.616969883E-1,-2.541419864E-1,-9.179379940E-1,1.018834148E0
1.430329991E0,-4.605520070E-1,-3.281019926E-1,-9.882720113E-1,1.138613471E0
1.435340758E0,-5.069379807E-1,-3.751789927E-1,-1.020679951E0,1.199805382E0
1.440351543E0,-5.179430246E-1,-4.000569880E-1,-9.888970256E-1,1.185844803E0
1.445362312E0,-4.774030149E-1,-4.072439969E-1,-8.857730031E-1,1.085520670E0
1.450373081E0,-4.087710083E-1,-3.823710084E-1,-7.426620126E-1,9.299721448E-1
1.455383850E0,-3.427520096E-1,-3.285579979E-1,-5.641160011E-1,7.373304285E-1
1.460394630E0,-2.764810026E-1,-2.373930067E-1,-4.000149965E-1,5.411184545E-1
1.465405400E0,-2.142740041E-1,-1.494410038E-1,-2.216369957E-1,3.425914773E-1
1.470416170E0,-1.298349947E-1,-4.591099918E-2,-2.408600040E-2,1.398037235E-1
1.475426943E0,-3.699300066E-2,2.366100065E-2,1.398389935E-1,1.465717202E-1
1.480437712E0,6.460800022E-2,6.906700134E-2,2.485820055E-1,2.659651440E-1
1.485448467E0,1.405760050E-1,8.165500313E-2,3.618279994E-1,3.966719726E-1
1.490459236E0,2.318349928E-1,9.010799974E-2,4.580760002E-1,5.212490167E-1
1.495470005E0,3.246130049E-1,1.129079983E-1,5.495309830E-1,6.481559382E-1
1.500480764E0,3.841489851E-1,1.164039969E-1,5.669220090E-1,6.946372417E-1
1.505491533E0,4.276860058E-1,1.310990006E-1,5.367730260E-1,6.987328166E-1
1.510502302E0,4.511019886E-1,1.774020046E-1,4.714100063E-1,6.761596478E-1
1.515513071E0,4.339829981E-1,2.168139964E-1,3.422349989E-1,5.936954996E-1
1.520523841E0,4.074510038E-1,2.496809959E-1,2.304980010E-1,5.305527765E-1
1.525534597E0,3.482019901E-1,2.740260065E-1,1.289259940E-1,4.614724153E-1
1.530545367E0,2.710030079E-1,2.593739927E-1,-9.399999981E-4,3.751244886E-1
1.535555925E0,1.598600000E-1,2.062329948E-1,-1.998929977E-1,3.287011991E-1
1.540566923E0,5.671999976E-2,1.370429993E-1,-3.486180007E-1,3.788567704E-1
1.545577694E0,-3.714400157E-2,6.871800125E-2,-4.831190109E-1,4.893933176E-1
1.550588222E0,-1.016699970E-1,2.275200002E-2,-5.627880096E-1,5.723502298E-1
1.555598990E0,-1.381569952E-1,3.743000096E-3,-5.996040106E-1,6.153262020E-1
1.560610015E0,-1.383319944E-1,-2.420000033E-3,-5.793579817E-1,5.956486112E-1
1.565620786E0,-1.124880016E-1,1.573199965E-2,-5.258719921E-1,5.379985115E-1
1.570631550E0,-8.674799651E-2,-4.600999877E-3,-4.085589945E-1,4.176922744E-1
1.575642088E0,-2.603100054E-2,7.778999861E-3,-2.296810001E-1,2.312822683E-1
1.580652856E0,5.514299870E-2,7.292000204E-2,-2.468799986E-2,9.469727736E-2
1.585663635E0,1.058479995E-1,1.377840042E-1,1.635610014E-1,2.386219436E-1
1.590674404E0,1.487299949E-1,1.762039959E-1,3.015879989E-1,3.796363795E-1
1.595685173E0,1.822759956E-1,1.510359943E-1,3.747349977E-1,4.432411631E-1
1.600695953E0,1.862529963E-1,9.843599796E-2,3.949539959E-1,4.476253827E-1
1.605706722E0,1.546970010E-1,2.808799967E-2,3.526880145E-1,3.861462591E-1
1.610717486E0,9.530200064E-2,-2.925599925E-2,3.007009923E-1,3.167956307E-1
1.615728255E0,3.845600039E-2,-6.425700337E-2,2.988469899E-1,3.080865946E-1
1.620739030E0,1.861600019E-2,-5.866700038E-2,3.449310064E-1,3.503794680E-1
1.625749800E0,4.653000087E-2,-2.518199943E-2,4.151839912E-1,4.185414204E-1
1.630760478E0,6.105399877E-2,-1.069999998E-4,4.068750143E-1,4.114302851E-1
1.635771322E0,5.833899975E-2,-1.178899966E-2,3.223290145E-1,3.277779935E-1
1.640782017E0,2.953100018E-2,-5.509600043E-2,1.303669959E-1,1.445793999E-1
1.645792851E0,-4.339999985E-3,-1.084650010E-1,-9.964600205E-2,1.473526985E-1
1.650803545E0,-5.804799870E-2,-1.567279994E-1,-2.483170033E-1,2.993235207E-1
1.655814389E0,-9.916599840E-2,-1.802439988E-1,-2.703680098E-1,3.397361551E-1
1.660825161E0,-1.078429967E-1,-1.673160046E-1,-1.849420071E-1,2.717136421E-1
1.665835853E0,-1.359679997E-1,-1.233579963E-1,-3.489299864E-2,1.868743256E-1
1.670846606E0,-1.174340025E-1,-1.009259969E-1,9.595599771E-2,1.821657357E-1
1.675857375E0,-8.546900004E-2,-8.631099761E-2,1.479839981E-1,1.914518267E-1
1.680868145E0,-7.046999782E-2,-7.992599905E-2,1.309150010E-1,1.687984698E-1
1.685878914E0,-5.794699863E-2,-1.053709984E-1,3.987099975E-2,1.266909569E-1
1.690889692E0,-8.546599746E-2,-1.129200011E-1,-5.556600168E-2,1.521280511E-1
1.695900461E0,-1.407629997E-1,-1.262460053E-1,-1.698140055E-1,2.541438026E-1
1.700911231E0,-1.794669926E-1,-1.419409961E-1,-1.955370009E-1,3.009823359E-1
1.705922001E0,-2.323990017E-1,-1.383260041E-1,-1.638689935E-1,3.162221157E-1
1.710932771E0,-2.456720024E-1,-1.156679988E-1,-9.393499792E-2,2.873283880E-1
1.715943545E0,-2.224120051E-1,-8.368100226E-2,-2.162300050E-2,2.386150965E-1
1.720954314E0,-1.749529988E-1,-6.800100207E-2,6.481099874E-2,1.985778276E-1
1.725965083E0,-1.128059998E-1,-4.772200063E-2,8.898100257E-2,1.513941933E-1
1.730975622E0,-6.866399944E-2,-3.480900079E-2,7.725299895E-2,1.090616211E-1
1.735986390E0,-5.616600066E-2,-1.040500030E-2,5.367200077E-2,7.838091176E-2
1.740997390E0,-7.218799740E-2,-2.318000048E-2,9.199900180E-2,1.192150818E-1
1.746008161E0,-7.188200206E-2,-3.001900017E-2,1.658630073E-1,1.832449175E-1
1.751018699E0,-1.831299998E-2,-5.171999801E-3,3.064819872E-1,3.070721805E-1
1.756029697E0,6.449399889E-2,3.419899940E-2,4.469679892E-1,4.528900869E-1
1.761040233E0,1.324799955E-1,5.962200090E-2,5.921080112E-1,6.096700986E-1
1.766051000E0,1.405140013E-1,5.643500015E-2,5.913599730E-1,6.104389498E-1
1.771061769E0,1.066600010E-1,3.402600065E-2,5.118309855E-1,5.239323261E-1
1.776072511E0,2.474899963E-2,1.823000051E-2,3.752410114E-1,3.764978918E-1
1.781083280E0,-6.498599797E-2,-1.657499932E-2,2.627269924E-1,2.711519557E-1
1.786094024E0,-1.627729982E-1,-3.976700082E-2,1.457149982E-1,2.220570287E-1
1.791104793E0,-2.201080024E-1,-6.572999805E-2,2.653199993E-2,2.312399455E-1
1.796115793E0,-2.433329970E-1,-6.621800363E-2,-4.210799932E-2,2.556733366E-1
1.801126325E0,-1.785860062E-1,-1.567200013E-2,-5.127000157E-3,1.793456420E-1
1.806137092E0,-5.181699991E-2,4.744200036E-2,8.956000209E-2,1.138276717E-1
1.811147861E0,7.965300232E-2,1.108750030E-1,1.606789976E-1,2.108449842E-1
1.816158630E0,2.000000030E-1,1.395860016E-1,2.199950069E-1,3.284540396E-1
1.821169400E0,2.799809873E-1,1.409569979E-1,1.814060062E-1,3.621689766E-1
1.826180178E0,2.936429977E-1,1.118619964E-1,2.072799951E-1,3.764363329E-1
1.831190947E0,2.596830130E-1,4.773399979E-2,1.540720016E-1,3.056991718E-1
1.836201657E0,1.951400042E-1,-2.555999905E-3,-6.513999775E-3,1.952654259E-1
1.841212424E0,1.095009968E-1,-3.898400068E-2,-1.380960047E-1,1.805013217E-1
1.846223193E0,1.190400030E-2,-6.367900223E-2,-2.192319930E-1,2.286031218E-1
1.851233957E0,-7.648400217E-2,-6.275200099E-2,-2.737259865E-1,2.910558914E-1
1.856244726E0,-1.862680018E-1,-1.045479998E-1,-3.784300089E-1,4.345518662E-1
1.861255573E0,-2.963899970E-1,-1.661850065E-1,-4.236940145E-1,5.431216297E-1
1.866266329E0,-3.652150035E-1,-1.979849935E-1,-4.500980079E-1,6.125098147E-1
1.871277098E0,-3.778179884E-1,-2.021120042E-1,-3.716650009E-1,5.672129825E-1
1.876287776E0,-3.405759931E-1,-1.723430008E-1,-2.839230001E-1,4.757167087E-1
1.881298544E0,-2.689340115E-1,-1.390600055E-1,-1.105860025E-1,3.223235201E-1
1.886309327E0,-1.769440025E-1,-1.214680001E-1,3.830200061E-2,2.180153626E-1
1.891320096E0,-7.131999731E-2,-1.031550020E-1,1.485099941E-1,1.943777632E-1
1.896330851E0,3.204600140E-2,-9.641899914E-2,1.986519992E-1,2.231281838E-1
1.901341698E0,1.498419940E-1,-7.807199657E-2,1.961289942E-1,2.588714782E-1
1.906352392E0,2.168689966E-1,-8.127799630E-2,1.409460008E-1,2.711163026E-1
1.911363154E0,2.530210018E-1,-7.514499873E-2,7.627800107E-2,2.747448483E-1
1.916373923E0,2.614560127E-1,-4.620200023E-2,-2.388500050E-2,2.665790027E-1
1.921384688E0,2.471169978E-1,2.379599959E-2,-8.987499774E-2,2.640276035E-1
1.926395457E0,2.310799956E-1,1.013180017E-1,-1.336639971E-1,2.855334761E-1
1.931406226E0,1.948200017E-1,1.490740031E-1,-1.674890071E-1,2.970361240E-1
1.936416995E0,1.666139960E-1,1.726109982E-1,-1.987780035E-1,3.115565358E-1
1.941427765E0,1.508799940E-1,1.704879999E-1,-1.871650070E-1,2.947230404E-1
1.946438545E0,1.609040052E-1,1.596419960E-1,-1.614789963E-1,2.783004348E-1
1.951449315E0,1.516319960E-1,1.167870015E-1,-1.458269954E-1,2.406179098E-1
1.956460078E0,1.443759948E-1,6.798599660E-2,-1.449269950E-1,2.155698437E-1
1.961470617E0,1.273380071E-1,1.570199989E-2,-1.540070027E-1,2.004486910E-1
1.966481384E0,9.851600230E-2,-1.430600043E-2,-1.489499956E-1,1.791540275E-1
1.971492403E0,5.820300058E-2,-3.947999794E-3,-1.318060011E-1,1.441388147E-1
1.976502944E0,2.983199991E-2,4.199999850E-3,-3.814600036E-2,4.860766977E-2
1.981513711E0,2.036100067E-2,2.901300043E-2,9.381300211E-2,1.002856117E-1
1.986524509E0,1.796099916E-2,6.914500147E-2,1.472470015E-1,1.636621770E-1
1.991535278E0,2.019399963E-2,1.008130014E-1,1.891070008E-1,2.152498935E-1
1.996546048E0,2.010500059E-2,1.240980029E-1,2.050240040E-1,2.404981654E-1
2.001556831E0,4.344899952E-2,1.696719974E-1,2.405750006E-1,2.975781128E-1
2.006567600E0,8.991900086E-2,1.905110031E-1,2.595939934E-1,3.343185763E-1
2.011578355E0,1.290829927E-1,1.916590035E-1,2.189670056E-1,3.183428061E-1
2.016589124E0,1.312910020E-1,1.646949947E-1,1.662559956E-1,2.683334205E-1
2.021599894E0,1.488739997E-1,1.220780015E-1,7.497200370E-2,2.066090695E-1
2.026610649E0,1.560409963E-1,7.398200035E-2,-3.830600157E-2,1.768883226E-1
2.031621419E0,1.529870033E-1,3.750300035E-2,-1.234290004E-1,2.001155075E-1
2.036632174E0,1.591089964E-1,1.829599962E-2,-9.212300181E-2,1.847621817E-1
2.041642867E0,1.304060072E-1,-2.991599962E-2,-1.905270070E-1,2.328115850E-1
2.046653634E0,1.020390019E-1,-6.082500145E-2,-4.014289975E-1,4.186369295E-1
2.051664408E0,1.051409990E-1,-5.661600083E-2,-6.216300130E-1,6.329959512E-1
2.056675177E0,1.838310063E-1,1.547699980E-2,-6.931599975E-1,7.172894524E-1
2.061686024E0,2.937059999E-1,1.498879939E-1,-6.421689987E-1,7.218799401E-1
2.066696718E0,3.813729882E-1,2.772670090E-1,-5.882369876E-1,7.538866652E-1
2.071707485E0,4.342699945E-1,3.036130071E-1,-6.275230050E-1,8.213138304E-1
2.076718254E0,3.969829977E-1,2.257200032E-1,-7.676020265E-1,8.931729347E-1
2.081729038E0,3.129749894E-1,1.330049932E-1,-8.340529799E-1,9.007152966E-1
2.086739807E0,2.247949988E-1,2.791900001E-2,-8.891350031E-1,9.175365474E-1
2.091750576E0,1.298809946E-1,-6.356599927E-2,-8.920680285E-1,9.037118326E-1
2.096761350E0,1.664900035E-2,-1.515389979E-1,-8.953130245E-1,9.081996856E-1
2.101772197E0,-1.080700010E-1,-2.377559990E-1,-1.009407043E0,1.042645491E0
2.106782891E0,-2.419629991E-1,-2.519640028E-1,-9.986050129E-1,1.057943252E0
2.111793438E0,-2.854709923E-1,-2.269880027E-1,-8.713780046E-1,9.446252525E-1
2.116804206E0,-2.785390019E-1,-2.045840025E-1,-7.531430125E-1,8.286513060E-1
2.121815206E0,-2.109490037E-1,-1.471280009E-1,-5.312970281E-1,5.902733797E-1
2.126825987E0,-9.018799663E-2,-5.294900015E-2,-2.582379878E-1,2.786114313E-1
2.131836756E0,6.148200110E-2,6.791400164E-2,1.845099963E-2,9.344938451E-2
2.136847525E0,2.040580064E-1,1.519380063E-1,2.220399976E-1,3.376782318E-1
2.141858295E0,3.352099955E-1,1.531870067E-1,2.826420069E-1,4.644550615E-1
2.146868833E0,3.605749905E-1,7.069599628E-2,7.311099768E-2,3.746431177E-1
2.151879571E0,2.938559949E-1,-4.952099919E-2,-1.514430046E-1,3.342733294E-1
2.156890341E0,1.235330030E-1,-1.677770019E-1,-4.440749884E-1,4.905222936E-1
2.161901100E0,-1.314409971E-1,-2.307080030E-1,-7.116550207E-1,7.595760574E-1
2.166911869E0,-3.087069988E-1,-3.084569871E-1,-7.689689994E-1,8.841713895E-1
2.171922649E0,-4.085699916E-1,-3.171080053E-1,-6.711750031E-1,8.473268612E-1
2.176933419E0,-4.610469937E-1,-2.702659965E-1,-5.660820007E-1,7.784965452E-1
2.181944188E0,-4.563609958E-1,-2.251960039E-1,-3.915399909E-1,6.420920208E-1
2.186954962E0,-4.149230123E-1,-1.898880005E-1,-2.094819993E-1,5.020968700E-1
2.191965731E0,-3.872900009E-1,-1.593089998E-1,-1.052979976E-1,4.318108041E-1
2.196976501E0,-3.301070035E-1,-1.299609989E-1,1.947700046E-2,3.553024747E-1
2.201987256E0,-2.704960108E-1,-1.243750006E-1,1.316390038E-1,3.255242847E-1
2.206998026E0,-2.461670041E-1,-1.224669963E-1,2.149319947E-1,3.489872798E-1
2.212008781E0,-2.685590088E-1,-9.723400325E-2,3.321110010E-1,4.380366533E-1
2.217019550E0,-2.951129973E-1,-3.855000064E-2,4.908399880E-1,5.740223668E-1
2.222030319E0,-3.073320091E-1,-3.596799821E-2,4.783580005E-1,5.697131185E-1
2.227041078E0,-3.534210026E-1,-3.492200002E-2,4.765740037E-1,5.943473161E-1
2.232051847E0,-3.864719868E-1,-1.685800031E-2,5.262119770E-1,6.531032334E-1
2.237062616E0,-3.626179993E-1,3.503999906E-3,5.984939933E-1,6.997850752E-1
2.242073385E0,-2.995850146E-1,1.926000044E-2,7.482659817E-1,8.062407258E-1
2.247084169E0,-2.300460041E-1,3.274599835E-2,8.822469711E-1,9.123339205E-1
2.252094938E0,-2.124969959E-1,2.011999954E-3,1.011571050E0,1.033651300E0
2.257105707E0,-2.102449983E-1,-6.448499858E-2,1.115802050E0,1.137266674E0
2.262116402E0,-2.105849981E-1,-1.449850053E-1,1.161427975E0,1.189235735E0
2.267127169E0,-1.914750040E-1,-2.318460047E-1,1.191427946E0,1.228786311E0
2.272137938E0,-1.526750028E-1,-2.959559858E-1,1.215289950E0,1.260090975E0
2.277148711E0,-1.197969988E-1,-2.983259857E-1,1.141940951E0,1.186329992E0
2.282159481E0,-6.582000107E-2,-2.742249966E-1,1.046239018E0,1.083580964E0
2.287170274E0,-8.403999731E-3,-2.531790137E-1,8.844509721E-1,9.200129142E-1
2.292181043E0,3.398200125E-2,-1.879850030E-1,6.998720169E-1,7.254750015E-1
2.297191817E0,8.963000029E-2,-1.748870015E-1,4.608539939E-1,5.010043951E-1
2.302202587E0,1.275549978E-1,-1.398649961E-1,1.913830042E-1,2.691838570E-1
2.307213357E0,1.522690058E-1,-8.712299913E-2,-4.649699852E-2,1.814889472E-1
2.312224118E0,1.475680023E-1,-9.297999553E-3,-2.336599976E-1,2.765135848E-1
2.317234887E0,1.531600058E-1,9.592799842E-2,-3.629550040E-1,4.054583865E-1
2.322245656E0,2.104779929E-1,2.029650062E-1,-4.298799932E-1,5.198967088E-1
2.327256410E0,2.876169980E-1,3.071730137E-1,-4.823729992E-1,6.401269469E-1
2.332267179E0,3.725720048E-1,3.713789880E-1,-5.231509805E-1,7.419024194E-1
2.337277719E0,4.071579874E-1,3.893499970E-1,-6.050540209E-1,8.267172522E-1
2.342288732E0,3.553290069E-1,3.341270089E-1,-6.997830272E-1,8.529922897E-1
2.347299272E0,2.283000052E-1,2.173939943E-1,-7.456830144E-1,8.095827315E-1
2.352310298E0,6.465300173E-2,7.827900350E-2,-7.406089902E-1,7.475354770E-1
2.357320839E0,-7.019499689E-2,-7.304500043E-2,-6.560990214E-1,6.638741113E-1
2.362331837E0,-1.681039929E-1,-1.970410049E-1,-5.301579833E-1,5.900437249E-1
2.367342387E0,-2.300129980E-1,-2.695910037E-1,-4.028419852E-1,5.365323416E-1
2.372353154E0,-2.545079887E-1,-2.877269983E-1,-2.497300059E-1,4.581770593E-1
2.377363924E0,-2.561919987E-1,-2.443560064E-1,-9.882500023E-2,3.675739092E-1
2.382374693E0,-2.305289954E-1,-1.762579978E-1,6.206899881E-2,2.967542082E-1
2.387385462E0,-2.030699998E-1,-1.241390035E-1,1.635999978E-1,2.888128741E-1
2.392396231E0,-1.802790016E-1,-9.024800360E-2,2.368630022E-1,3.110454989E-1
2.397407001E0,-1.545989960E-1,-7.211399823E-2,2.603160143E-1,3.112325587E-1
2.402417765E0,-8.160299808E-2,-6.452299654E-2,2.720629871E-1,2.912739867E-1
2.407428534E0,-1.092999987E-2,-9.542500228E-2,2.001329958E-1,2.219878645E-1
2.412439303E0,4.133199900E-2,-1.427910030E-1,7.313799858E-2,1.656706719E-1
2.417450073E0,4.991500080E-2,-1.874759942E-1,-1.184300035E-1,2.272980894E-1
2.422460843E0,2.236299962E-2,-2.174170017E-1,-2.884280086E-1,3.618853030E-1
2.427471613E0,-2.041699924E-2,-1.926690042E-1,-3.720760047E-1,4.194982149E-1
2.432482315E0,-6.247299910E-2,-1.514510065E-1,-3.981519938E-1,4.305406986E-1
2.437493083E0,-1.091409996E-1,-1.076259986E-1,-3.452880085E-1,3.777815799E-1
2.442503837E0,-1.003839970E-1,-4.945699871E-2,-2.350900024E-1,2.603656099E-1
2.447514606E0,-3.796099871E-2,4.614099860E-2,-4.112299904E-2,7.253364892E-2
2.452525375E0,3.513899818E-2,1.195050031E-1,1.408479959E-1,1.880275323E-1
2.457536145E0,6.564299762E-2,1.403709948E-1,3.059180081E-1,3.429268829E-1
2.462546914E0,4.798100144E-2,1.022609994E-1,3.941810131E-1,4.100465334E-1
2.467557698E0,-2.675999887E-3,2.006700076E-2,4.486159980E-1,4.490725545E-1
2.472568467E0,-8.076599985E-2,-4.721900076E-2,4.982140064E-1,5.069220620E-1
2.477579236E0,-1.412110031E-1,-1.213679984E-1,5.262650251E-1,5.582343729E-1
2.482590015E0,-2.076260000E-1,-1.699649990E-1,5.354639888E-1,5.989309977E-1
2.487600785E0,-2.401539981E-1,-1.941010058E-1,5.212619901E-1,6.058574136E-1
2.492611555E0,-2.464949936E-1,-2.038799971E-1,4.885399938E-1,5.839504779E-1
2.497622300E0,-2.434320003E-1,-1.882189959E-1,4.183790088E-1,5.193520234E-1
2.502633069E0,-2.285359949E-1,-1.711190045E-1,3.179729879E-1,4.273373792E-1
2.507643838E0,-1.928260028E-1,-1.549630016E-1,1.753170043E-1,3.032019974E-1
2.512654607E0,-1.578440070E-1,-1.300140023E-1,2.147799917E-2,2.056202223E-1
2.517665376E0,-1.512719989E-1,-5.927700177E-2,-1.814160049E-1,2.435338732E-1
2.522676145E0,-7.966600358E-2,-1.498300023E-2,-3.239420056E-1,3.339305099E-1
2.527686690E0,9.038000368E-3,1.313600037E-2,-4.828490019E-1,4.831122008E-1
2.532697457E0,9.998200089E-2,4.944600165E-2,-6.104159951E-1,6.205231621E-1
2.537708452E0,1.651480049E-1,6.377600133E-2,-7.570919991E-1,7.775149754E-1
2.542719224E0,1.817539930E-1,3.898299858E-2,-8.706979752E-1,8.903196910E-1
2.547729993E0,1.604440063E-1,4.577999935E-3,-9.705309868E-1,9.837142032E-1
2.552740748E0,1.251389980E-1,1.332500018E-2,-9.657070041E-1,9.738723439E-1
2.557751517E0,1.223199964E-1,3.236199915E-2,-8.588860035E-1,8.681558889E-1
2.562762056E0,1.462109983E-1,6.167099997E-2,-7.051650286E-1,7.227992016E-1
2.567772823E0,2.007649988E-1,1.105270013E-1,-4.638299942E-1,5.173597069E-1
2.572783596E0,2.694799900E-1,1.775870025E-1,-2.780590057E-1,4.259969708E-1
2.577794366E0,3.824459910E-1,1.925950050E-1,-4.063799977E-2,4.301269801E-1
2.582805135E0,4.694370031E-1,1.978629977E-1,1.482439935E-1,5.305630475E-1
2.587815894E0,4.569830000E-1,1.932280064E-1,3.199169934E-1,5.903536291E-1
2.592826663E0,3.547129929E-1,1.506260037E-1,4.838910103E-1,6.185951909E-1
2.597837653E0,2.229589969E-1,1.102809981E-1,6.881620288E-1,7.317373782E-1
2.602848194E0,1.111460030E-1,5.999099836E-2,8.824970126E-1,8.914893892E-1
2.607858961E0,5.421299860E-2,2.993999980E-2,1.100239038E0,1.101980669E0
2.612869674E0,6.048899889E-2,-2.075899951E-2,1.253829002E0,1.255458889E0
2.617880442E0,3.996900097E-2,-1.136529967E-1,1.273910999E0,1.279595154E0
2.622891206E0,-7.031000219E-3,-2.558780015E-1,1.122200966E0,1.151024758E0
2.627902052E0,-6.106000021E-2,-3.500829935E-1,8.782269955E-1,9.474012252E-1
2.632912766E0,-1.423819959E-1,-4.140579998E-1,5.892310143E-1,7.341047937E-1
2.637923534E0,-2.555469871E-1,-4.363059998E-1,3.462820053E-1,6.128445278E-1
2.642934303E0,-3.610050082E-1,-4.033440053E-1,2.165579945E-1,5.830166100E-1
2.647945081E0,-4.081769884E-1,-3.228160143E-1,2.120410055E-1,5.619430762E-1
2.652955850E0,-4.382979870E-1,-2.312069982E-1,2.227749974E-1,5.433143665E-1
2.657966620E0,-4.120909870E-1,-1.544609964E-1,2.366160005E-1,4.996641999E-1
2.662977390E0,-3.398469985E-1,-1.020020023E-1,1.792979985E-1,3.975527174E-1
2.667988160E0,-2.525640130E-1,-8.299499750E-2,2.917500027E-2,2.674470619E-1
2.672998929E0,-1.485580057E-1,-5.950399861E-2,-1.682430059E-1,2.321980102E-1
2.678009698E0,-7.987499982E-2,1.094999956E-3,-3.576619923E-1,3.664741674E-1
2.683020467E0,-3.207699955E-2,7.257399708E-2,-5.127769709E-1,5.188796978E-1
2.688031236E0,-1.186999958E-2,1.505610049E-1,-6.169059873E-1,6.351240117E-1
2.693042015E0,-4.927999806E-3,2.354339957E-1,-6.653550267E-1,7.057979620E-1
2.698052784E0,-1.789999940E-2,3.159700036E-1,-6.630579829E-1,7.347131017E-1
2.703063553E0,-8.585999720E-3,3.788459897E-1,-5.983660221E-1,7.082654162E-1
2.708074312E0,4.551399872E-2,4.296559989E-1,-4.955039918E-1,6.574192022E-1
2.713084852E0,1.131170020E-1,4.712769985E-1,-3.737489879E-1,6.120341260E-1
2.718095601E0,1.804199964E-1,4.620600045E-1,-2.717410028E-1,5.655917215E-1
2.723106370E0,1.875730008E-1,3.986279964E-1,-1.993049979E-1,4.835394424E-1
2.728117158E0,1.158789992E-1,2.850829959E-1,-1.447989941E-1,3.400985235E-1
2.733127927E0,2.522000112E-3,1.299249977E-1,-8.699899912E-2,1.563831556E-1
2.738138707E0,-1.422789991E-1,-1.409399975E-2,2.194900066E-2,1.446503130E-1
2.743149476E0,-2.714340091E-1,-1.659640074E-1,1.867620051E-1,3.689180391E-1
2.748160216E0,-3.598980010E-1,-2.887569964E-1,3.551169932E-1,5.822501635E-1
2.753170985E0,-3.875499964E-1,-3.605880141E-1,5.011950135E-1,7.289822750E-1
2.758181755E0,-3.717109859E-1,-4.300140142E-1,5.988479853E-1,8.256512696E-1
2.763192525E0,-3.409039974E-1,-4.745920002E-1,6.054229736E-1,8.414214635E-1
2.768203295E0,-3.046419919E-1,-5.027199984E-1,5.475729704E-1,8.033494245E-1
2.773214064E0,-2.725229859E-1,-4.966959953E-1,4.328469932E-1,7.129741995E-1
2.778224833E0,-2.541350126E-1,-4.718869925E-1,2.758530080E-1,6.027908595E-1
2.783235616E0,-2.310400009E-1,-3.962459862E-1,1.415079981E-1,4.800154968E-1
2.788246309E0,-1.899600029E-1,-2.946490049E-1,6.035999861E-3,3.506269700E-1
2.793257047E0,-1.436160058E-1,-1.886979938E-1,-9.950300306E-2,2.571640286E-1
2.798267894E0,-7.161100209E-2,-5.739200115E-2,-1.750629991E-1,1.976588755E-1
2.803278665E0,2.960399911E-2,6.870699674E-2,-2.184689939E-1,2.309236875E-1
2.808289371E0,1.476970017E-1,2.134280056E-1,-2.177419960E-1,3.387882742E-1
2.813300138E0,2.732909918E-1,3.231270015E-1,-2.090950012E-1,4.720378638E-1
2.818310904E0,3.600479960E-1,3.894970119E-1,-2.357980013E-1,5.804680690E-1
2.823321673E0,4.050180018E-1,3.954220116E-1,-2.767069936E-1,6.300515132E-1
2.828332442E0,3.701190054E-1,2.961969972E-1,-3.659929931E-1,5.988919855E-1
2.833343225E0,2.023860067E-1,8.791299909E-2,-5.473470092E-1,5.901504381E-1
2.838353995E0,-8.022399992E-2,-1.762939990E-1,-7.088879943E-1,7.348725418E-1
2.843364765E0,-3.863880038E-1,-4.335699975E-1,-8.507559896E-1,1.030079796E0
2.848375525E0,-6.146569848E-1,-6.455969810E-1,-8.415359855E-1,1.225879882E0
2.853386294E0,-7.013339996E-1,-7.206670046E-1,-7.379040122E-1,1.247290119E0
2.858397063E0,-6.674180031E-1,-7.607600093E-1,-5.923759937E-1,1.172651654E0
2.863407828E0,-5.606210232E-1,-7.464950085E-1,-4.141179919E-1,1.021295472E0
2.868418597E0,-4.059819877E-1,-6.687279940E-1,-2.647120059E-1,8.258879768E-1
2.873429137E0,-2.375389934E-1,-6.182190180E-1,-1.442580074E-1,6.778125849E-1
2.878439889E0,-7.687100023E-2,-5.248500109E-1,9.875000454E-3,5.305414218E-1
2.883450658E0,6.449999660E-2,-3.833169937E-1,1.910099983E-1,4.331015893E-1
2.888461417E0,2.269760072E-1,-2.047369927E-1,3.971320093E-1,5.011478592E-1
2.893472186E0,3.479369879E-1,-8.979000151E-3,6.309769750E-1,7.206057958E-1
2.898482956E0,4.087750018E-1,2.030559927E-1,8.427209854E-1,9.583879160E-1
2.903493956E0,5.216060281E-1,3.496550024E-1,1.034584999E0,1.210246913E0
2.908504727E0,6.766849756E-1,4.616029859E-1,1.198740959E0,1.451881455E0
2.913515280E0,8.225319982E-1,4.984219968E-1,1.318449974E0,1.631960082E0
2.918526048E0,9.171950221E-1,4.652650058E-1,1.362568021E0,1.707134982E0
2.923536817E0,9.642230272E-1,3.388989866E-1,1.290295959E0,1.646038344E0
2.928547571E0,8.967229724E-1,1.299259961E-1,1.055914044E0,1.391383241E0
2.933558340E0,7.095230222E-1,-7.759299874E-2,7.354379892E-1,1.024847612E0
2.938569106E0,5.077720284E-1,-2.107840031E-1,3.956440091E-1,6.773451932E-1
2.943579875E0,3.004989922E-1,-2.725929916E-1,1.107890010E-1,4.205719750E-1
2.948590668E0,1.202059984E-1,-2.823399901E-1,-1.287049949E-1,3.327616682E-1
2.953601437E0,-2.246000059E-2,-2.390120029E-1,-3.847489953E-1,4.535008033E-1
2.958612197E0,-1.224370003E-1,-1.671240032E-1,-6.213729978E-1,6.550004991E-1
2.963622967E0,-1.609610021E-1,-7.415500283E-2,-8.027200103E-1,8.220503777E-1
2.968633660E0,-1.431919932E-1,4.624599963E-2,-9.406729937E-1,9.526323112E-1
2.973644433E0,-7.647799700E-2,1.863210052E-1,-1.006507039E0,1.026460336E0
2.978655203E0,5.762499943E-2,2.226220071E-1,-9.869379997E-1,1.013374469E0
2.983665972E0,2.007779926E-1,2.692469954E-1,-9.440500140E-1,1.002016056E0
2.988676745E0,3.175410032E-1,3.444660008E-1,-8.249449730E-1,9.486955902E-1
2.993687514E0,3.996399939E-1,4.196099937E-1,-6.462969780E-1,8.680348238E-1
2.998698284E0,4.623129964E-1,4.482220113E-1,-3.964479864E-1,7.561793993E-1
3.003709064E0,5.184500217E-1,5.245450139E-1,-8.928699791E-2,7.429064979E-1
3.008719834E0,5.830299854E-1,5.907149911E-1,2.131419927E-1,8.569117070E-1
3.013730603E0,6.404880285E-1,6.416050196E-1,4.799099863E-1,1.025765817E0
3.018741128E0,6.661180258E-1,6.557250023E-1,6.608399749E-1,1.144726157E0
3.023752126E0,6.404709816E-1,6.147009730E-1,7.486270070E-1,1.161250516E0
3.028762666E0,5.607450008E-1,5.225840211E-1,8.505520225E-1,1.144975003E0
3.033773434E0,4.823029935E-1,4.036689997E-1,8.779579997E-1,1.079988467E0
3.038784203E0,3.936969936E-1,2.840610147E-1,8.596040010E-1,9.872218704E-1
3.043794957E0,2.929809988E-1,1.336299926E-1,7.784619927E-1,8.424357036E-1
3.048805726E0,1.689310074E-1,-2.583199926E-2,6.392449737E-1,6.616941240E-1
3.053816510E0,6.647600234E-2,-1.565230042E-1,4.803459942E-1,5.095594017E-1
3.058827279E0,-1.988600008E-2,-2.472929955E-1,2.947930098E-1,3.852949483E-1
3.063838048E0,-7.716300339E-2,-2.916359901E-1,1.473439932E-1,3.357319350E-1
3.068848818E0,-1.021440029E-1,-3.000270128E-1,4.705000203E-3,3.169727792E-1
3.073859588E0,-8.919700235E-2,-2.918510139E-1,-9.959799796E-2,3.210185053E-1
3.078870348E0,-4.672000185E-2,-2.534329891E-1,-1.630280018E-1,3.049412532E-1
3.083881118E0,4.055500031E-2,-1.903769970E-1,-1.949820071E-1,2.755106026E-1
3.088891872E0,1.384779960E-1,-1.035280004E-1,-2.287520021E-1,2.867432313E-1
3.093902641E0,1.908019930E-1,8.771000430E-3,-2.258130014E-1,2.957597717E-1
3.098913410E0,2.148309946E-1,1.131279990E-1,-2.077119946E-1,3.195224141E-1
3.103924179E0,2.043879926E-1,1.960349977E-1,-1.483190060E-1,3.196915691E-1
3.108934948E0,1.882610023E-1,2.442319989E-1,-8.142299950E-2,3.189375787E-1
3.113945732E0,1.925559938E-1,2.680450082E-1,4.726999905E-3,3.300731460E-1
3.118956501E0,2.217469960E-1,2.862429917E-1,3.605800122E-2,3.638776717E-1
3.123967275E0,2.730900049E-1,2.851209939E-1,7.938700169E-2,4.027088625E-1
3.128977969E0,3.113920093E-1,2.348279953E-1,7.935100049E-2,3.980022011E-1
3.133988751E0,3.231810033E-1,1.854110062E-1,4.320500046E-2,3.750864890E-1
3.138999597E0,3.488079906E-1,1.255680025E-1,2.818300016E-2,3.717910959E-1
3.144010368E0,3.439120054E-1,8.808399737E-2,-3.967399895E-2,3.572230175E-1
3.149021127E0,2.515099943E-1,2.162200026E-2,-8.890900016E-2,2.676370647E-1
3.154031896E0,1.507180035E-1,-6.327000260E-2,-1.006660014E-1,1.919704500E-1
3.159042580E0,4.883199930E-2,-1.263100058E-1,-1.059509963E-1,1.719430002E-1
3.164053347E0,-3.564200178E-2,-1.608709991E-1,-8.308099955E-2,1.845326072E-1
3.169064121E0,-9.606099874E-2,-2.096119970E-1,-5.132500082E-2,2.362184592E-1
3.174074890E0,-1.262429953E-1,-2.488600016E-1,-1.540399995E-2,2.794742876E-1
3.179085660E0,-1.501179934E-1,-2.957510054E-1,-3.741699830E-2,3.337725287E-1
3.184096429E0,-1.658190042E-1,-3.341180086E-1,-7.412900031E-2,3.802971135E-1
3.189107198E0,-1.553149968E-1,-3.525860012E-1,-1.038530022E-1,3.990301775E-1
3.194117957E0,-1.569160074E-1,-3.378449976E-1,-1.095490009E-1,3.882819329E-1
3.199128727E0,-1.705829948E-1,-2.885360122E-1,-6.700599939E-2,3.418207021E-1
3.204139502E0,-1.496630013E-1,-2.289090008E-1,2.144300006E-2,2.743321834E-1
3.209150041E0,-1.089859977E-1,-1.665820032E-1,1.080430001E-1,2.264968021E-1
3.214160809E0,-6.499599665E-2,-1.161929965E-1,1.474040002E-1,1.986283748E-1
3.219171582E0,-1.054800022E-2,-7.801000029E-2,1.419879943E-1,1.623496566E-1
3.224182351E0,3.781300038E-2,-4.970699921E-2,6.549099833E-2,9.049684873E-2
3.229193135E0,5.219899863E-2,-5.181699991E-2,-9.810000192E-4,7.355745577E-2
3.234203905E0,9.392099828E-2,-3.916899860E-2,-7.172299922E-2,1.244972007E-1
3.239214659E0,1.389410049E-1,-9.364999831E-3,-1.371629983E-1,1.954635367E-1
3.244225428E0,1.429989934E-1,2.330400050E-2,-2.044679970E-1,2.505971874E-1
3.249236188E0,1.305059940E-1,5.448399857E-2,-2.593869865E-1,2.954351525E-1
3.254246883E0,7.183899730E-2,4.053800181E-2,-3.047890067E-1,3.157538753E-1
3.259257650E0,-2.000799961E-2,1.349900011E-2,-3.289499879E-1,3.298342577E-1
3.264268524E0,-9.551099688E-2,-3.035699949E-2,-3.154309988E-1,3.309692024E-1
3.269279295E0,-1.621879935E-1,-5.996000022E-2,-2.690150142E-1,3.197955983E-1
3.274290080E0,-2.040079981E-1,-7.981500030E-2,-1.730419993E-1,2.791652398E-1
3.279300849E0,-1.820330024E-1,-8.071400225E-2,-5.615700036E-2,2.068921768E-1
3.284311618E0,-1.651140004E-1,-9.840500355E-2,5.050399899E-2,1.987380985E-1
3.289322324E0,-1.342329979E-1,-1.533969939E-1,1.562280059E-1,2.568196357E-1
3.294333092E0,-1.103169993E-1,-1.798530072E-1,2.350330055E-1,3.158440409E-1
3.299343842E0,-7.703399658E-2,-1.741050035E-1,2.967930138E-1,3.526086810E-1
3.304354688E0,-2.067399956E-2,-1.188649982E-1,3.444019854E-1,3.649233202E-1
3.309365377E0,5.571499839E-2,-6.694199890E-2,3.970319927E-1,4.064723797E-1
3.314376145E0,1.351539940E-1,2.097999910E-3,4.023280144E-1,4.244276556E-1
3.319386909E0,1.806209981E-1,9.442800283E-2,3.964760005E-1,4.457957062E-1
3.324397678E0,1.767790020E-1,1.486079991E-1,3.673210144E-1,4.338892492E-1
3.329408447E0,8.279199898E-2,1.652339995E-1,3.099550009E-1,3.608724044E-1
3.334419217E0,-3.160100058E-2,1.781260073E-1,2.960860133E-1,3.469789979E-1
3.339429987E0,-8.928599954E-2,1.730590016E-1,2.514689863E-1,3.180535471E-1
3.344440540E0,-1.782380044E-1,1.506060064E-1,2.022890002E-1,3.088232423E-1
3.349451307E0,-2.304210067E-1,1.212290004E-1,2.272479981E-1,3.455892989E-1
3.354462308E0,-2.557789981E-1,9.213899821E-2,2.665100098E-1,3.807099633E-1
3.359473079E0,-2.827529907E-1,6.541900337E-2,2.746999860E-1,3.996110385E-1
3.364483848E0,-2.484090030E-1,5.698699877E-2,2.424349934E-1,3.517517261E-1
3.369494372E0,-1.638759971E-1,3.854500130E-2,2.054560035E-1,2.656185779E-1
3.374505140E0,-6.071799994E-2,2.911500074E-2,1.709569991E-1,1.837407258E-1
3.379515909E0,4.941999912E-3,-4.143000115E-3,1.172510013E-1,1.174282126E-1
3.384526688E0,5.065000057E-2,-2.409999957E-3,3.984500095E-2,6.448918327E-2
3.389537457E0,5.840300024E-2,4.301900044E-2,-3.560000099E-3,7.262381452E-2
3.394548457E0,4.066000134E-2,1.099539995E-1,-7.258900255E-2,1.378850282E-1
3.399559229E0,-9.077999741E-3,1.630789936E-1,-1.123389974E-1,1.982352606E-1
3.404569767E0,-3.656399995E-2,2.052060068E-1,-1.325089931E-1,2.469920334E-1
3.409580529E0,-4.479400069E-2,2.091789991E-1,-1.335469931E-1,2.521847647E-1
3.414591299E0,-5.061699823E-2,1.856029928E-1,-1.205329970E-1,2.270214853E-1
3.419602068E0,-5.398400128E-2,1.234700009E-1,-1.176709980E-1,1.789010265E-1
3.424612822E0,-5.748999864E-2,5.415200070E-2,-1.154740006E-1,1.398991920E-1
3.429623591E0,-4.960300028E-2,3.872999921E-3,-8.043599874E-2,9.458016525E-2
3.434634357E0,-3.310099989E-2,-2.319199964E-2,-2.914999984E-2,4.983239440E-2
3.439645051E0,5.801000167E-3,-4.368299991E-2,6.943800300E-2,8.224045443E-2
3.444655827E0,4.828999937E-2,-4.872699827E-2,1.605010033E-1,1.745474619E-1
3.449666596E0,5.991899967E-2,-6.464300305E-2,2.201530039E-1,2.371420450E-1
3.454677352E0,5.340399966E-2,-1.220889986E-1,2.076119930E-1,2.466991090E-1
3.459688121E0,4.059600085E-2,-1.990599930E-1,1.993159950E-1,2.846046064E-1
3.464698904E0,1.698699966E-2,-2.416290045E-1,1.884170026E-1,3.068779901E-1
3.469709673E0,-7.840000093E-3,-2.649529874E-1,1.512120068E-1,3.051665482E-1
3.474720443E0,-3.141799942E-2,-2.743709981E-1,9.264899790E-2,2.912908720E-1
3.479731213E0,-6.089299917E-2,-2.914310098E-1,1.034300029E-2,2.979042941E-1
3.484741973E0,-9.401500225E-2,-2.810750008E-1,-8.350700140E-2,3.079210873E-1
3.489752742E0,-1.123199984E-1,-2.603020072E-1,-1.816810071E-1,3.367208122E-1
3.494763511E0,-1.258510053E-1,-2.407789975E-1,-2.435989976E-1,3.649020044E-1
3.499774036E0,-1.626430005E-1,-2.224200070E-1,-3.051509857E-1,4.111453869E-1
3.504784803E0,-1.712100059E-1,-1.724919975E-1,-3.422369957E-1,4.197529232E-1
3.509795803E0,-1.617320031E-1,-1.311540008E-1,-3.526389897E-1,4.095276179E-1
3.514806565E0,-1.277460009E-1,-8.415699750E-2,-3.554989994E-1,3.870154771E-1
3.519817103E0,-8.365699649E-2,-3.875600174E-2,-3.866949975E-1,3.975343279E-1
3.524827870E0,-2.502300031E-2,-1.804400049E-2,-4.393000007E-1,4.403819105E-1
3.529838640E0,2.906299941E-2,2.067700028E-2,-4.797039926E-1,4.810281871E-1
3.534849409E0,5.556799844E-2,6.348600239E-2,-4.864540100E-1,4.937162938E-1
3.539860409E0,2.976500057E-2,8.037500083E-2,-4.861159921E-1,4.936140737E-1
3.544870949E0,-2.735000104E-3,8.378899843E-2,-4.716419876E-1,4.790346970E-1
3.549881717E0,-1.862500049E-2,9.109299630E-2,-3.905999959E-1,4.015136129E-1
3.554892491E0,-8.898999542E-3,1.116330028E-1,-2.836290002E-1,3.049369267E-1
3.559903260E0,3.755699843E-2,1.330620050E-1,-2.080910057E-1,2.498357300E-1
3.564913954E0,9.895700216E-2,1.415890008E-1,-1.234830022E-1,2.123393163E-1
3.569924732E0,1.356070042E-1,1.468189955E-1,-4.652199894E-2,2.052056856E-1
3.574935578E0,1.437419951E-1,1.346150041E-1,6.022999994E-3,1.970259805E-1
3.579946339E0,1.195809990E-1,1.099369973E-1,5.089399964E-2,1.702232590E-1
3.584957108E0,6.881400198E-2,5.882500112E-2,7.605200261E-2,1.182355899E-1
3.589967877E0,1.522899978E-2,3.784700111E-2,1.008849964E-1,1.088214152E-1
3.594978647E0,-2.037299983E-2,1.315900031E-2,1.015359983E-1,1.043924200E-1
3.599989339E0,-7.113700360E-2,-4.079400003E-2,1.089100018E-1,1.363305256E-1
3.605000101E0,-1.204190031E-1,-1.236070022E-1,9.417799860E-2,1.965932926E-1
3.610010871E0,-1.521410048E-1,-1.950049996E-1,1.005069986E-1,2.669747029E-1
3.615021655E0,-1.716320068E-1,-2.274799943E-1,1.282269955E-1,3.124849691E-1
3.620032424E0,-1.513369977E-1,-2.340790033E-1,1.536619961E-1,3.182889815E-1
3.625043212E0,-1.249750033E-1,-1.973119974E-1,1.557260007E-1,2.807158048E-1
3.630053981E0,-9.510999918E-2,-1.533489972E-1,1.799470037E-1,2.548386765E-1
3.635064751E0,-4.326599836E-2,-7.710199803E-2,1.931300014E-1,2.124049485E-1
3.640075521E0,-1.654100046E-2,7.100000221E-5,1.881960034E-1,1.889215325E-1
3.645086060E0,-4.604999907E-3,3.093500063E-2,1.243240014E-1,1.281976505E-1
3.650096823E0,4.870999977E-2,9.115800261E-2,4.718000069E-2,1.136151310E-1
3.655107823E0,9.096699953E-2,1.638900042E-1,-4.079600051E-2,1.918312856E-1
3.660118594E0,1.293620020E-1,2.306520045E-1,-1.182390004E-1,2.896814388E-1
3.665129344E0,1.826730072E-1,2.828750014E-1,-1.806479990E-1,3.821274572E-1
3.670139883E0,2.043170035E-1,3.191640079E-1,-2.425899953E-1,4.499566731E-1
3.675150650E0,1.883359998E-1,3.151040077E-1,-2.878029943E-1,4.664670921E-1
3.680161399E0,1.359020025E-1,2.749939859E-1,-3.048300147E-1,4.324492854E-1
3.685172168E0,7.603500038E-2,2.237890065E-1,-2.915819883E-1,3.753437047E-1
3.690182938E0,2.521000057E-2,1.548289955E-1,-2.817400098E-1,3.224670450E-1
3.695193736E0,-3.523800150E-2,9.008400142E-2,-2.299579978E-1,2.494744973E-1
3.700204505E0,-9.805300087E-2,2.480299957E-2,-1.601780057E-1,1.894375181E-1
3.705215505E0,-1.378539950E-1,4.309999931E-4,-1.174250022E-1,1.810871084E-1
3.710226061E0,-1.743790060E-1,-3.085899912E-2,-1.558899973E-2,1.777732614E-1
3.715236751E0,-1.799110025E-1,-4.127300158E-2,9.531100094E-2,2.077392991E-1
3.720247529E0,-1.621810049E-1,-6.242199987E-2,1.771129966E-1,2.481293976E-1
3.725258298E0,-1.330640018E-1,-8.060800284E-2,2.180519998E-1,2.678625642E-1
3.730269068E0,-1.206410006E-1,-1.290930063E-1,2.180899978E-1,2.806822089E-1
3.735279847E0,-1.081880033E-1,-1.585119963E-1,1.726980060E-1,2.581768741E-1
3.740290616E0,-1.074950024E-1,-1.646270007E-1,1.490440071E-1,2.467211806E-1
3.745301385E0,-8.807100356E-2,-1.388919950E-1,1.186780035E-1,2.028101488E-1
3.750312159E0,-4.815300182E-2,-1.100289971E-1,9.113600105E-2,1.507675776E-1
3.755322929E0,2.573099919E-2,-3.112900071E-2,9.535899758E-2,1.035588597E-1
3.760333679E0,1.210919991E-1,1.045800000E-2,9.986499697E-2,1.573075320E-1
3.765344448E0,2.029689997E-1,4.169100150E-2,9.255599976E-2,2.269386868E-1
3.770355222E0,2.862899899E-1,9.348700196E-2,8.787199855E-2,3.137248253E-1
3.775365991E0,3.365719914E-1,1.468050033E-1,4.756800085E-2,3.702635941E-1
3.780376760E0,3.643839955E-1,2.045550048E-1,3.854899853E-2,4.196480329E-1
3.785387548E0,3.616310060E-1,2.270970047E-1,-1.628000056E-3,4.270277326E-1
3.790398088E0,3.134190142E-1,1.944420040E-1,-9.963700175E-2,3.820558905E-1
3.795409086E0,2.511270046E-1,1.360049993E-1,-2.293300033E-1,3.662709143E-1
3.800419621E0,1.796099991E-1,6.409099698E-2,-3.931710124E-1,4.369792359E-1
3.805430389E0,1.124930009E-1,-1.858600043E-2,-5.745069981E-1,5.857118792E-1
3.810441163E0,5.812200159E-2,-1.513919979E-1,-7.665629983E-1,7.835282602E-1
3.815451932E0,7.962999865E-3,-2.610329986E-1,-9.428009987E-1,9.783022840E-1
3.820462701E0,-3.907399997E-2,-3.171629906E-1,-1.083529949E0,1.129670877E0
3.825473470E0,-1.205099970E-1,-3.226499856E-1,-1.167057037E0,1.216818721E0
3.830484240E0,-2.571650147E-1,-2.595889866E-1,-1.128561974E0,1.186242983E0
3.835495009E0,-3.711569905E-1,-2.081770003E-1,-1.070706010E0,1.152174698E0
3.840505778E0,-4.067530036E-1,-1.298809946E-1,-9.601359963E-1,1.050798844E0
3.845516547E0,-3.707099855E-1,-2.612500079E-2,-7.768989801E-1,8.612087055E-1
3.850527317E0,-2.999449968E-1,6.544899940E-2,-5.069169998E-1,5.926343032E-1
3.855538087E0,-1.947209984E-1,1.381269991E-1,-1.694640070E-1,2.927684833E-1
3.860548862E0,-5.671700090E-2,1.854179949E-1,1.803350002E-1,2.647968340E-1
3.865559631E0,8.480600268E-2,2.291190028E-1,5.474029779E-1,5.994477423E-1
3.870570400E0,2.129569948E-1,2.133069932E-1,8.621649742E-1,9.133340012E-1
3.875581169E0,3.105899990E-1,1.551429927E-1,1.123621941E0,1.176036462E0
3.880591938E0,3.589310050E-1,8.417499810E-2,1.288063049E0,1.339784802E0
3.885602631E0,3.422180116E-1,4.411099851E-2,1.295544028E0,1.340706260E0
3.890613418E0,2.537460029E-1,-4.298499972E-2,1.196050048E0,1.223425707E0
3.895624187E0,1.993750036E-1,-1.211649999E-1,1.070695043E0,1.095818974E0
3.900634956E0,1.011589989E-1,-1.790519953E-1,8.202940226E-1,8.456802253E-1
3.905645706E0,3.781799972E-2,-2.799629867E-1,5.407959819E-1,6.101391391E-1
3.910656476E0,-4.052900150E-2,-3.386119902E-1,1.893469989E-1,3.900678991E-1
3.915667254E0,-1.085330024E-1,-3.903009892E-1,-1.385750026E-1,4.281557031E-1
3.920678023E0,-1.276219934E-1,-3.715350032E-1,-3.924880028E-1,5.553129425E-1
3.925688792E0,-1.092239991E-1,-2.953169942E-1,-5.625910163E-1,6.447097491E-1
3.930699562E0,-5.950500071E-2,-1.933670044E-1,-6.918240190E-1,7.207996370E-1
3.935710332E0,-1.016699988E-2,-6.648299843E-2,-7.656159997E-1,7.685643863E-1
3.940721092E0,2.900700085E-2,8.665800095E-2,-8.051869869E-1,8.103561557E-1
3.945731631E0,5.798099935E-2,1.654189974E-1,-7.968469858E-1,8.158984985E-1
3.950742625E0,7.166299969E-2,2.130080014E-1,-8.004670143E-1,8.314177261E-1
3.955753165E0,5.593999848E-2,2.164220065E-1,-7.542340159E-1,7.866617565E-1
3.960763937E0,4.550999962E-3,2.418700010E-1,-6.770200133E-1,7.189422142E-1
3.965774707E0,-2.604500018E-2,2.516790032E-1,-5.331540108E-1,5.901473222E-1
3.970785476E0,-5.050000176E-2,2.578470111E-1,-3.513750136E-1,4.387479134E-1
3.975796230E0,-7.824400067E-2,2.601250112E-1,-1.579280049E-1,3.142107570E-1
3.980806999E0,-1.183649972E-1,2.445770055E-1,3.989699855E-2,2.746269373E-1
3.985817694E0,-1.447969973E-1,2.094520032E-1,2.730019987E-1,3.733180994E-1
3.990828543E0,-1.690880060E-1,1.529469937E-1,5.172880292E-1,5.653056181E-1
3.995839314E0,-1.813230067E-1,1.266999990E-1,7.323920131E-1,7.650679599E-1
4.000850083E0,-1.575880051E-1,1.063650027E-1,9.184449911E-1,9.379172111E-1
4.005860853E0,-1.305599958E-1,6.188400090E-2,1.029422045E0,1.039512043E0
4.010871617E0,-9.681200236E-2,5.221800134E-2,9.735469818E-1,9.797412971E-1
4.015882386E0,-3.055999987E-3,2.174399979E-2,9.198499918E-1,9.201120302E-1
4.020893078E0,6.043000147E-2,-2.672200091E-2,8.251460195E-1,8.277872938E-1
4.025903846E0,9.440600127E-2,-6.702099741E-2,7.110440135E-1,7.204081456E-1
4.030914615E0,7.384400070E-2,-8.535200357E-2,5.681790113E-1,5.792799754E-1
4.035925374E0,1.636400074E-2,-9.168200195E-2,4.182330072E-1,4.284766252E-1
4.040936143E0,-2.862700075E-2,-4.660899937E-2,2.902910113E-1,2.953993488E-1
4.045946889E0,-8.055000007E-2,1.779899932E-2,1.678919941E-1,1.870637019E-1
4.050957658E0,-1.305519938E-1,6.359600276E-2,4.373700172E-2,1.516614651E-1
4.055968432E0,-1.745249927E-1,6.518600136E-2,-9.437300265E-2,2.088407323E-1
4.060979201E0,-2.085379958E-1,4.255900159E-2,-1.988629997E-1,2.912831216E-1
4.065989990E0,-2.287860066E-1,1.735099964E-2,-2.865439951E-1,3.670852151E-1
4.071000530E0,-2.358870059E-1,8.623000234E-3,-3.358849883E-1,4.105310720E-1
4.076011297E0,-2.212300003E-1,2.263000002E-3,-3.374269903E-1,4.034907780E-1
4.081022293E0,-1.949090064E-1,3.355100006E-2,-2.790449858E-1,3.420252833E-1
4.086032834E0,-1.223620027E-1,6.254199892E-2,-1.466660053E-1,2.009847717E-1
4.091043601E0,-2.063800022E-2,9.126999974E-2,-4.069799930E-2,1.020414967E-1
4.096054370E0,7.053799927E-2,1.151039973E-1,7.235199958E-2,1.531644586E-1
4.101065370E0,1.335610002E-1,1.108789966E-1,1.755629927E-1,2.468907796E-1
4.106075911E0,1.626950055E-1,7.429499924E-2,2.305569947E-1,2.917977716E-1
4.111086678E0,1.775349975E-1,2.236000076E-2,2.516269982E-1,3.087633255E-1
4.116097446E0,1.554729939E-1,-3.494599834E-2,2.961310148E-1,3.362835895E-1
4.121108215E0,1.580799967E-1,-5.316499993E-2,3.308480084E-1,3.705080394E-1
4.126118985E0,1.783349961E-1,-5.395400152E-2,3.964999914E-1,4.380943372E-1
4.131129769E0,1.905190051E-1,-8.732099831E-2,3.638179898E-1,4.198642373E-1
4.136140538E0,1.462370008E-1,-1.455619931E-1,2.997100055E-1,3.638676156E-1
4.141151312E0,9.565799683E-2,-1.929630041E-1,2.114080042E-1,3.017921761E-1
4.146162082E0,2.023099922E-2,-2.462169975E-1,9.892799705E-2,2.661181162E-1
4.151172786E0,-6.806100160E-2,-3.238019943E-1,-5.945400149E-2,3.361767537E-1
4.156183553E0,-1.046859995E-1,-3.853049874E-1,-1.943390071E-1,4.440571377E-1
4.161194399E0,-1.081589982E-1,-4.141879976E-1,-2.482910007E-1,4.948721929E-1
4.166205089E0,-1.215030029E-1,-4.016129971E-1,-2.306549996E-1,4.788086340E-1
4.171215856E0,-1.258489937E-1,-3.487890065E-1,-1.985179931E-1,4.205961648E-1
4.176226630E0,-1.378100067E-1,-2.684699893E-1,-1.205369979E-1,3.249567679E-1
4.181237399E0,-1.433719993E-1,-2.012639940E-1,-5.418699980E-2,2.529801502E-1
4.186248174E0,-1.287710071E-1,-1.632580012E-1,3.380300105E-2,2.106603667E-1
4.191258943E0,-8.974699676E-2,-1.169160008E-1,9.576500207E-2,1.757691961E-1
4.196269712E0,-4.084600136E-2,-9.998200089E-2,1.650229990E-1,1.972242037E-1
4.201280243E0,3.824000014E-3,-1.048400030E-1,2.342790067E-1,2.566957385E-1
4.206291010E0,7.249099761E-2,-1.103919968E-1,2.844879925E-1,3.136475021E-1
4.211301784E0,1.065630019E-1,-1.145230010E-1,3.325369954E-1,3.674942781E-1
4.216312553E0,1.281169951E-1,-1.245189980E-1,3.593350053E-1,4.012986311E-1
4.221323333E0,1.191300005E-1,-1.428840011E-1,3.458229899E-1,3.926847784E-1
4.226334102E0,1.085079983E-1,-1.508889943E-1,3.064840138E-1,3.584325948E-1
4.231344885E0,8.478999883E-2,-1.277139932E-1,2.726469934E-1,3.127884125E-1
4.236355654E0,5.768299848E-2,-8.828700334E-2,2.085900009E-1,2.337342759E-1
4.241366424E0,5.505299941E-2,-2.832099982E-2,1.120200008E-1,1.279898135E-1
4.246377199E0,1.064350009E-1,4.295299947E-2,4.498200119E-2,1.232750989E-1
4.251387969E0,1.385899931E-1,1.163929999E-1,-1.173400041E-2,1.813620781E-1
4.256398719E0,1.153260022E-1,1.873379946E-1,-1.106899977E-1,2.462679163E-1
4.261409488E0,1.147330031E-1,1.650139987E-1,-2.765839994E-1,3.418947067E-1
4.266420257E0,7.560399920E-2,1.481769979E-1,-4.042550027E-1,4.371435630E-1
4.271431016E0,3.534999909E-3,1.021870002E-1,-5.203459859E-1,5.302967323E-1
4.276441785E0,-7.996100187E-2,5.838000029E-2,-6.177390218E-1,6.256224782E-1
4.281452469E0,-1.498199999E-1,1.038500015E-2,-6.297349930E-1,6.473948115E-1
4.286463236E0,-1.768700033E-1,3.985700011E-2,-5.630120039E-1,5.914846533E-1
4.291474082E0,-1.630560011E-1,9.819100052E-2,-4.390060008E-1,4.784924250E-1
4.296484767E0,-1.073449999E-1,1.630879939E-1,-3.198049963E-1,3.746943800E-1
4.301495535E0,-5.264599994E-2,2.107519954E-1,-2.054490000E-1,2.989938068E-1
4.306506381E0,1.761000045E-2,2.414979935E-1,-9.126099944E-2,2.587662323E-1
4.311517079E0,5.443400145E-2,2.597729862E-1,-1.774599962E-2,2.660074912E-1
4.316527846E0,4.486300051E-2,2.427279949E-1,6.272099912E-2,2.546831209E-1
4.321538602E0,2.777400054E-2,2.097280025E-1,1.333629936E-1,2.500858217E-1
4.326549371E0,8.209000342E-3,1.561809927E-1,1.630299985E-1,2.259173977E-1
4.331560135E0,2.488000086E-3,1.059909984E-1,2.091280073E-1,2.344670666E-1
4.336570675E0,1.042500045E-2,7.526899874E-2,2.455150038E-1,2.570052916E-1
4.341581673E0,2.027199976E-2,3.304800019E-2,2.386620045E-1,2.417905636E-1
4.346592204E0,3.213899955E-2,-1.422000001E-3,2.555460036E-1,2.575629968E-1
4.351602971E0,3.252699971E-2,-2.601500042E-2,2.436539978E-1,2.471883019E-1
4.356613744E0,1.503899973E-2,-6.876999885E-2,2.147990018E-1,2.260400306E-1
4.361624514E0,1.293599978E-2,-8.723200113E-2,1.882919967E-1,2.079197878E-1
4.366635283E0,2.821199968E-2,-8.670800179E-2,1.499069929E-1,1.754602548E-1
4.371646052E0,4.631299898E-2,-7.485400140E-2,9.977299720E-2,1.330513674E-1
4.376656821E0,5.550000072E-2,-6.375999749E-2,3.794199973E-2,9.265626100E-2
4.381667596E0,5.358099937E-2,-7.009200007E-2,-8.106300235E-2,1.198124464E-1
4.386678366E0,1.262599975E-2,-1.027349979E-1,-2.095369995E-1,2.337084718E-1
4.391689141E0,-3.874000162E-2,-1.260019988E-1,-3.498170078E-1,3.738304834E-1
4.396699910E0,-1.007959992E-1,-1.537359953E-1,-4.446400106E-1,4.811437714E-1
4.401710679E0,-1.574919969E-1,-1.832460016E-1,-5.037080050E-1,5.586632084E-1
4.406721367E0,-1.812649965E-1,-1.886799932E-1,-5.365309715E-1,5.969276524E-1
4.411732211E0,-1.802410036E-1,-1.753830016E-1,-5.669329762E-1,6.202088488E-1
4.416742905E0,-1.670850068E-1,-1.554310024E-1,-5.925409794E-1,6.349653599E-1
4.421753654E0,-1.403059959E-1,-1.421830058E-1,-5.299630165E-1,5.663590544E-1
4.426764423E0,-1.073720008E-1,-1.445370018E-1,-4.248859882E-1,4.614626685E-1
4.431775192E0,-5.894400179E-2,-1.476529986E-1,-2.487509996E-1,2.952166376E-1
4.436785961E0,9.603999555E-3,-1.187769994E-1,-2.287399955E-2,1.213401510E-1
4.441796731E0,7.066799700E-2,-9.419900179E-2,1.859440058E-1,2.200967766E-1
4.446807500E0,9.260399640E-2,-9.742999822E-2,3.729250133E-1,3.964103559E-1
4.451818269E0,1.049079970E-1,-1.048659980E-1,5.142869949E-1,5.352510425E-1
4.456828810E0,1.108120009E-1,-1.026870012E-1,6.222069860E-1,6.402854466E-1
4.461839808E0,1.206350029E-1,-1.053479984E-1,6.752150059E-1,6.939497884E-1
4.466850579E0,1.069720015E-1,-1.222800016E-1,6.518049836E-1,6.717478281E-1
4.471861343E0,8.692400157E-2,-1.553130001E-1,5.972869992E-1,6.232412611E-1
4.476872112E0,5.136699975E-2,-1.714390069E-1,4.639649987E-1,4.972860563E-1
4.481882911E0,5.220000166E-3,-1.801120043E-1,3.451389968E-1,3.893436909E-1
4.486893449E0,-3.969600052E-2,-1.791400015E-1,2.073590010E-1,2.768838528E-1
4.491904216E0,-9.281200171E-2,-1.946280003E-1,2.425199933E-2,2.169845285E-1
4.496914986E0,-1.289730072E-1,-1.844169945E-1,-1.943970025E-1,2.973783096E-1
4.501925755E0,-1.380379945E-1,-1.438699961E-1,-3.266139925E-1,3.826614218E-1
4.506936519E0,-1.123389974E-1,-6.407800317E-2,-3.723219931E-1,3.941442723E-1
4.511947288E0,-5.335599929E-2,3.538100049E-2,-3.649910092E-1,3.705632398E-1
4.516958067E0,4.716699943E-2,1.262589991E-1,-3.096350133E-1,3.376979452E-1
4.521968836E0,1.234660000E-1,1.966689974E-1,-2.708129883E-1,3.567383107E-1
4.526979605E0,1.810030043E-1,2.422129959E-1,-2.533830106E-1,3.945024373E-1
4.531990271E0,2.065339983E-1,2.403469980E-1,-2.122109979E-1,3.813875713E-1
4.537001115E0,2.104180008E-1,2.361080050E-1,-2.141229957E-1,3.819311226E-1
4.542011897E0,1.793330014E-1,2.064680010E-1,-2.186370045E-1,3.501306907E-1
4.547022666E0,1.301970035E-1,1.593219936E-1,-1.804880053E-1,2.736981502E-1
4.552033358E0,7.981500030E-2,1.416829973E-1,-1.329250038E-1,2.100322895E-1
4.557044126E0,5.117800087E-2,1.370850056E-1,-2.105100080E-2,1.478331194E-1
4.562054895E0,5.076500028E-2,1.144960001E-1,7.370500267E-2,1.453232490E-1
4.567065635E0,4.769900069E-2,1.071750000E-1,2.088640034E-1,2.395534329E-1
4.572076404E0,4.667900130E-2,1.120539978E-1,3.582910001E-1,3.782954776E-1
4.577087178E0,3.183599934E-2,8.139999956E-2,4.334720075E-1,4.421961918E-1
4.582097948E0,-2.956999931E-3,4.350699857E-2,4.441690147E-1,4.463045108E-1
4.587108713E0,-4.758999869E-2,-4.393999930E-3,3.761689961E-1,3.791928650E-1
4.592119483E0,-8.328799903E-2,-3.671900183E-2,2.607690096E-1,2.761985739E-1
4.597130238E0,-1.153910011E-1,-7.024700195E-2,1.146970019E-1,1.772149166E-1
4.602141007E0,-1.326629966E-1,-6.061400101E-2,-2.588699944E-2,1.481339412E-1
4.607151776E0,-1.195330024E-1,-2.052400075E-2,-1.847810000E-1,2.210280327E-1
4.612162535E0,-8.422800153E-2,2.409199998E-2,-3.286670148E-1,3.401423046E-1
4.617173075E0,-3.680500016E-2,6.253699958E-2,-3.981220126E-1,4.046808882E-1
4.622183842E0,2.196500078E-2,8.834899962E-2,-4.340890050E-1,4.435327172E-1
4.627194611E0,7.546400279E-2,7.654800266E-2,-4.393399954E-1,4.522986226E-1
4.632205380E0,1.168520004E-1,6.543499976E-2,-4.425700009E-1,4.623898084E-1
4.637216140E0,1.277119964E-1,9.056100249E-2,-3.694469929E-1,4.012514545E-1
4.642226909E0,1.045090035E-1,1.069860011E-1,-2.511459887E-1,2.923053949E-1
4.647237678E0,7.620699704E-2,1.103740036E-1,-9.735199809E-2,1.657327325E-1
4.652248447E0,3.839800134E-2,9.619499743E-2,5.359499902E-2,1.166203582E-1
4.657259142E0,2.916299924E-2,9.284199774E-2,2.257079929E-1,2.457930331E-1
4.662269909E0,2.520399913E-2,7.649199665E-2,3.950670063E-1,4.031925181E-1
4.667280693E0,2.485599928E-2,3.281199932E-2,5.018870234E-1,5.035722712E-1
4.672291462E0,3.529899940E-2,-2.463600039E-2,4.889709949E-1,4.908620843E-1
4.677302232E0,4.218700156E-2,-1.004500017E-1,3.993369937E-1,4.139323380E-1
4.682312991E0,5.705299973E-2,-1.706680059E-1,2.927699983E-1,3.436522733E-1
4.687323760E0,5.889099836E-2,-2.260420024E-1,1.478600055E-1,2.764520171E-1
4.692334539E0,5.748900026E-2,-2.666549981E-1,-1.620600000E-2,2.732627080E-1
4.697345309E0,4.085100070E-2,-2.878740132E-1,-1.706739962E-1,3.371496177E-1
4.702356079E0,4.615300149E-2,-2.572149932E-1,-2.842099965E-1,3.860893347E-1
4.707366849E0,8.392100036E-2,-1.988209933E-1,-3.089889884E-1,3.768908551E-1
4.712377618E0,1.483429968E-1,-1.160539985E-1,-3.261600137E-1,3.766358052E-1
4.717388372E0,2.336169928E-1,-5.361999851E-3,-3.689300120E-1,4.367092902E-1
4.722399141E0,3.178769946E-1,1.118979976E-1,-3.536179960E-1,4.884799204E-1
4.727409680E0,3.964160085E-1,2.032970041E-1,-3.116259873E-1,5.436782869E-1
4.732420697E0,4.509199858E-1,2.416509986E-1,-2.768340111E-1,5.816881539E-1
4.737431469E0,4.521819949E-1,2.564789951E-1,-2.206380069E-1,5.647399061E-1
4.742442238E0,3.902809918E-1,2.297919989E-1,-1.647900045E-1,4.819536916E-1
4.747452982E0,3.021349907E-1,2.025929987E-1,-7.343900204E-2,3.711101760E-1
4.752463521E0,1.841209978E-1,1.322589964E-1,-2.801799960E-2,2.284250254E-1
4.757474288E0,6.479399651E-2,3.871899843E-2,5.018800125E-2,9.064357833E-2
4.762485057E0,-7.429199666E-2,-6.833399832E-2,1.013669968E-1,1.430528019E-1
4.767495826E0,-1.812330037E-1,-1.444160044E-1,1.616619974E-1,2.825526241E-1
4.772506620E0,-2.636519969E-1,-1.978680044E-1,1.667879969E-1,3.694351885E-1
4.777517389E0,-3.152059913E-1,-2.177000046E-1,1.480949968E-1,4.107069965E-1
4.782528158E0,-3.183969855E-1,-2.114440054E-1,1.534499973E-1,4.118641881E-1
4.787538927E0,-2.840189934E-1,-1.492560059E-1,1.879290044E-1,3.718352520E-1
4.792549696E0,-2.293400019E-1,-6.985700130E-2,2.348659933E-1,3.356171508E-1
4.797560466E0,-1.617670059E-1,1.917600073E-2,2.393169999E-1,2.894976851E-1
4.802571179E0,-7.924000174E-2,8.991099894E-2,2.680310011E-1,2.936044672E-1
4.807581946E0,-2.831500024E-2,1.635349989E-1,2.589749992E-1,3.075930515E-1
4.812592707E0,-2.899199910E-2,1.770939976E-1,2.141660005E-1,2.794099063E-1
4.817603476E0,-5.015200004E-2,1.694480032E-1,1.741240025E-1,2.480867129E-1
4.822614245E0,-6.826599687E-2,1.696289927E-1,1.985549927E-1,2.699228160E-1
4.827625038E0,-6.250499934E-2,1.518819928E-1,2.633189857E-1,3.103415907E-1
4.832635807E0,-1.029589996E-1,1.022569984E-1,2.894529998E-1,3.237901920E-1
4.837646577E0,-1.394100040E-1,4.905600101E-2,2.986159921E-1,3.331863610E-1
4.842657126E0,-2.001679987E-1,-2.191399969E-2,2.884050012E-1,3.517454986E-1
4.847667893E0,-2.476200014E-1,-4.983099923E-2,3.022480011E-1,3.938942088E-1
4.852678659E0,-2.704490125E-1,-6.426300108E-2,2.948839962E-1,4.052517402E-1
4.857689428E0,-2.925119996E-1,-1.060770005E-1,1.921920031E-1,3.657230729E-1
4.862700201E0,-2.816219926E-1,-1.349370033E-1,9.466999769E-2,3.263148020E-1
4.867710970E0,-2.603020072E-1,-9.306699783E-2,-1.970000099E-3,2.764461646E-1
4.872721740E0,-2.039400041E-1,-5.828899890E-2,9.480999783E-3,2.123182094E-1
4.877732509E0,-1.502369940E-1,-1.400099974E-2,6.449999660E-2,1.640958011E-1
4.882743278E0,-9.176699817E-2,5.336700007E-2,9.154199809E-2,1.401754474E-1
4.887754052E0,-3.068099916E-2,1.080550030E-1,8.580800146E-2,1.413514078E-1
4.892764822E0,9.584000334E-3,1.554969996E-1,1.141669974E-1,1.931457306E-1
4.897775582E0,2.766099945E-2,1.561190039E-1,8.306600153E-2,1.789922760E-1
4.902786352E0,1.527400035E-2,1.345980018E-1,1.976999920E-3,1.354762921E-1
4.907797121E0,-3.307000035E-3,8.285400271E-2,-6.011199951E-2,1.024166710E-1
4.912807814E0,-6.643000059E-3,3.710800037E-2,-1.176699996E-1,1.235611668E-1
4.917818581E0,-1.116400026E-2,-2.340899967E-2,-1.828670055E-1,1.846969352E-1
4.922829350E0,2.276300080E-2,-5.586599931E-2,-2.270119935E-1,2.348906326E-1
4.927840124E0,2.414700016E-2,-6.526300311E-2,-2.475869954E-1,2.571802043E-1
4.932850971E0,1.939100027E-2,-7.067199796E-2,-2.470010072E-1,2.576432412E-1
4.937861660E0,2.011200041E-2,-6.998600066E-2,-2.658799887E-1,2.756713645E-1
4.942872427E0,1.663400047E-2,-8.699999750E-2,-3.138459921E-1,3.261058054E-1
4.947883211E0,1.095599961E-2,-9.996499866E-2,-2.976779938E-1,3.142057015E-1
4.952893981E0,9.766000323E-3,-8.814299852E-2,-2.554660141E-1,2.704208707E-1
4.957904521E0,-3.659999929E-3,-8.246400207E-2,-1.872639954E-1,2.046497281E-1
4.962915273E0,-4.279899970E-2,-1.087889969E-1,-1.385959983E-1,1.813164388E-1
4.967926273E0,-7.453399897E-2,-1.222859994E-1,-9.734000266E-2,1.731596337E-1
4.972936814E0,-1.153040007E-1,-1.350370049E-1,-2.992900088E-2,1.800715146E-1
4.977947567E0,-1.116909981E-1,-1.472170055E-1,4.678799957E-2,1.906222512E-1
4.982958336E0,-9.751500189E-2,-1.356279999E-1,1.497450024E-1,2.243383509E-1
4.987969106E0,-1.969500072E-2,-8.949600160E-2,2.838990092E-1,2.983220991E-1
4.992979865E0,8.758600056E-2,-2.623999957E-3,4.710139930E-1,4.790953710E-1
4.997990634E0,1.802330017E-1,7.240699977E-2,6.370199919E-1,6.659738573E-1
5.003001389E0,2.245510072E-1,1.098069996E-1,7.365120053E-1,7.777728884E-1
5.008012159E0,2.061759979E-1,1.123050004E-1,7.528690100E-1,7.886270991E-1
5.013022929E0,1.711499989E-1,1.015779972E-1,7.172139883E-1,7.443160059E-1
5.018033713E0,9.468200058E-2,8.391200006E-2,5.127230287E-1,5.281011353E-1
5.023044482E0,2.620700002E-2,5.111800134E-2,3.207649887E-1,3.258681250E-1
5.028055166E0,2.342100069E-2,1.453499962E-2,2.817719877E-1,2.831170474E-1
5.033065933E0,2.435199916E-2,2.146000043E-3,2.356729954E-1,2.369375149E-1
5.038076702E0,1.971700042E-2,2.014899999E-2,1.493079960E-1,1.519461088E-1
5.043087471E0,2.815799974E-2,3.053900041E-2,6.322100013E-2,7.564653563E-2
5.048098241E0,5.384400114E-2,4.790500179E-2,1.557299960E-2,7.373319451E-2
5.053109000E0,8.235699683E-2,4.156500101E-2,-6.556300074E-2,1.131761075E-1
5.058119769E0,5.588699877E-2,-2.516500093E-2,-1.709080040E-1,1.815659102E-1
5.063130538E0,1.796600036E-2,-9.698099643E-2,-2.957029939E-1,3.117183848E-1
5.068141308E0,-3.842300177E-2,-1.566600055E-1,-3.323870003E-1,3.694587966E-1
5.073151848E0,-7.823300362E-2,-1.809809953E-1,-3.286710083E-1,3.832742559E-1
5.078162592E0,-1.142430007E-1,-1.637870073E-1,-2.938799858E-1,3.553070405E-1
5.083173361E0,-1.583680063E-1,-1.319189966E-1,-2.373999953E-1,3.143911654E-1
5.088184131E0,-1.918289959E-1,-1.115399972E-1,-1.808539927E-1,2.862650893E-1
5.093194876E0,-1.846269965E-1,-7.743900269E-2,-1.694809943E-1,2.623122842E-1
5.098205645E0,-1.543139964E-1,-6.518699974E-2,-1.963090003E-1,2.580685529E-1
5.103216414E0,-1.459349990E-1,-6.959699839E-2,-2.159509957E-1,2.697695288E-1
5.108227414E0,-1.266659945E-1,-7.416199893E-2,-2.595370114E-1,2.981672962E-1
5.113237955E0,-8.814799786E-2,-5.327700078E-2,-2.839390039E-1,3.020428220E-1
5.118248722E0,-3.602499887E-2,-9.771999903E-3,-2.676180005E-1,2.702085985E-1
5.123259505E0,2.913100086E-2,6.592699885E-2,-1.532460004E-1,1.693497004E-1
5.128270275E0,1.093750000E-1,1.494320035E-1,-3.885199875E-2,1.892149363E-1
5.133281034E0,2.043319941E-1,2.452770025E-1,9.950800240E-2,3.343863249E-1
5.138291728E0,2.790369987E-1,3.366830051E-1,2.332579941E-1,4.956070867E-1
5.143302572E0,3.161210120E-1,4.068570137E-1,3.052450120E-1,5.988652947E-1
5.148313338E0,3.681659997E-1,4.723140001E-1,3.275119960E-1,6.825619573E-1
5.153324030E0,4.166280031E-1,5.234389901E-1,2.810280025E-1,7.256335215E-1
5.158334826E0,4.106500149E-1,5.188930035E-1,2.253140062E-1,6.990348955E-1
5.163345595E0,3.517569900E-1,4.903210104E-1,1.077760011E-1,6.129953830E-1
5.168356384E0,2.461110055E-1,4.012070000E-1,-2.172899991E-2,4.711791945E-1
5.173367153E0,1.478520036E-1,2.897309959E-1,-1.815400086E-2,3.257818790E-1
5.178377922E0,2.677899972E-2,1.583700031E-1,-5.607999861E-2,1.701268320E-1
5.183388706E0,-8.886300027E-2,5.363800004E-2,-1.566559970E-1,1.879222426E-1
5.188399247E0,-1.811909974E-1,-4.287099838E-2,-1.576009989E-1,2.439388753E-1
5.193410245E0,-1.996009946E-1,-1.314260066E-1,-1.739999950E-1,2.956168982E-1
5.198421025E0,-1.230449975E-1,-1.934109926E-1,-1.343470067E-1,2.657009629E-1
5.203431794E0,-3.345799819E-2,-1.919739991E-1,-3.585999832E-2,1.981398331E-1
5.208442343E0,2.757499926E-2,-1.872030050E-1,7.152900100E-2,2.022912347E-1
5.213453341E0,6.397300214E-2,-2.151979953E-1,9.959600121E-2,2.456055489E-1
5.218463881E0,7.888799906E-2,-2.289849967E-1,1.061979979E-1,2.644531336E-1
5.223474663E0,9.845499694E-2,-2.083729953E-1,9.415400028E-2,2.489531429E-1
5.228485432E0,1.361940056E-1,-1.707530022E-1,8.986599743E-2,2.361806351E-1
5.233496192E0,1.635729969E-1,-8.866299689E-2,8.900400251E-2,2.062497631E-1
5.238506961E0,1.762489974E-1,1.922999974E-3,9.645400196E-2,2.009248156E-1
5.243517975E0,1.729159951E-1,5.815599859E-2,7.038999815E-3,1.825694637E-1
5.248528516E0,1.539340019E-1,1.114379987E-1,-1.026960015E-1,2.160105859E-1
5.253539293E0,1.216799989E-1,1.423709989E-1,-8.751200140E-2,2.067217305E-1
5.258549987E0,1.254650056E-1,1.726859957E-1,-6.009799987E-2,2.217514156E-1
5.263560755E0,1.808010042E-1,2.160120010E-1,-6.347700208E-2,2.887551168E-1
5.268571533E0,2.492949963E-1,2.278259993E-1,-9.081500024E-2,3.497142339E-1
5.273582302E0,2.941429913E-1,1.896239966E-1,-2.234459966E-1,4.152173802E-1
5.278593081E0,2.861079872E-1,1.283549964E-1,-3.990510106E-1,5.075179746E-1
5.283603851E0,2.426909953E-1,4.487600178E-2,-5.962669849E-1,6.453271202E-1
5.288614620E0,1.738779992E-1,-2.922499925E-2,-7.816870213E-1,8.013253137E-1
5.293625398E0,1.028629988E-1,-1.052109972E-1,-9.221850038E-1,9.338497372E-1
5.298636167E0,5.010600016E-2,-1.555020064E-1,-1.042518020E0,1.055241824E0
5.303646913E0,-2.307100035E-2,-1.699369997E-1,-1.061007023E0,1.074777539E0
5.308657683E0,-1.002020016E-1,-1.654099971E-1,-1.023123026E0,1.041240431E0
5.313668188E0,-1.541700065E-1,-1.695799977E-1,-8.873360157E-1,9.164556570E-1
5.318679186E0,-1.603289992E-1,-2.074919939E-1,-7.200769782E-1,7.663348942E-1
5.323689756E0,-1.528729945E-1,-2.498240024E-1,-4.379349947E-1,5.268484072E-1
5.328700754E0,-1.122590005E-1,-2.992759943E-1,-3.318099976E-1,4.607234295E-1
5.333711294E0,-8.670300245E-2,-2.927129865E-1,-1.715279967E-1,3.501716104E-1
5.338722077E0,-1.107579991E-1,-2.688890100E-1,3.375399858E-2,2.927592295E-1
5.343732847E0,-1.728360057E-1,-2.756989896E-1,1.815440059E-1,3.726129947E-1
5.348743526E0,-2.084220052E-1,-3.088740110E-1,2.600359917E-1,4.543804616E-1
5.353754370E0,-2.319670022E-1,-3.522329926E-1,2.598359883E-1,4.953700758E-1
5.358765065E0,-2.367870063E-1,-3.899250031E-1,2.146510035E-1,5.041672814E-1
5.363775832E0,-2.438129932E-1,-4.249919951E-1,7.694499940E-2,4.959672413E-1
5.368786601E0,-2.044219971E-1,-4.336659908E-1,-1.955099963E-2,4.798299554E-1
5.373797370E0,-1.480930001E-1,-3.792859912E-1,-1.055660024E-1,4.206347354E-1
5.378808134E0,-5.909400061E-2,-2.729240060E-1,-1.927780062E-1,3.393272368E-1
5.383818904E0,5.418400094E-2,-1.201289967E-1,-2.357109934E-1,2.700491700E-1
5.388829673E0,1.886859983E-1,1.765199937E-2,-2.490949929E-1,3.129893201E-1
5.393840510E0,2.840960026E-1,1.870210022E-1,-3.637230098E-1,4.979777322E-1
5.398851204E0,3.577260077E-1,2.831700146E-1,-4.535920024E-1,6.433497170E-1
5.403861976E0,3.943949938E-1,2.975470126E-1,-5.099560022E-1,7.100258869E-1
5.408872745E0,3.352299929E-1,2.957400084E-1,-5.947319865E-1,7.440076857E-1
5.413883495E0,1.922339946E-1,2.324129939E-1,-6.724550128E-1,7.369975934E-1
5.418894264E0,3.901100159E-2,1.247939989E-1,-6.533269882E-1,6.662818877E-1
5.423904815E0,-7.813400030E-2,2.180200070E-2,-5.308550000E-1,5.370170205E-1
5.428915582E0,-1.860390007E-1,-4.383299872E-2,-3.575150073E-1,4.053995831E-1
5.433926360E0,-2.408010066E-1,-1.222729981E-1,-1.479820013E-1,3.079520799E-1
5.438937130E0,-2.691990137E-1,-2.119490057E-1,2.617600001E-2,3.436214094E-1
5.443947899E0,-2.767589986E-1,-2.786479890E-1,1.726049930E-1,4.289903597E-1
5.448958668E0,-2.507100105E-1,-2.954959869E-1,3.586629927E-1,5.280270164E-1
5.453969437E0,-2.266979963E-1,-2.667250037E-1,5.419570208E-1,6.451756516E-1
5.458980207E0,-2.158229947E-1,-2.268850058E-1,7.134289742E-1,7.791259668E-1
5.463990987E0,-2.284179926E-1,-2.119989991E-1,8.279500008E-1,8.846578767E-1
5.469001757E0,-2.513949871E-1,-2.318300009E-1,8.474959731E-1,9.138894973E-1
5.474012531E0,-2.516120076E-1,-2.701349854E-1,7.554029822E-1,8.407824798E-1
5.479023300E0,-2.280080020E-1,-2.541970015E-1,6.643580198E-1,7.469774716E-1
5.484034069E0,-1.957450062E-1,-2.242629975E-1,6.530249715E-1,7.176709642E-1
5.489044762E0,-1.639370024E-1,-1.950079948E-1,5.899720192E-1,6.426277633E-1
5.494055529E0,-1.091570035E-1,-1.661950052E-1,5.133090019E-1,5.504744886E-1
5.499066328E0,-4.098499939E-2,-1.239230037E-1,3.872829974E-1,4.086866784E-1
5.504077174E0,-1.549100038E-2,-7.997500151E-2,2.312230021E-1,2.451531127E-1
5.509087868E0,-3.755999962E-3,-1.724600047E-2,1.144450009E-1,1.157980583E-1
5.514098664E0,8.097000420E-3,7.813200355E-2,1.309799962E-2,7.963497340E-2
5.519109434E0,2.456500009E-2,1.639969945E-1,-4.683399945E-2,1.723133104E-1
5.524120202E0,4.324100167E-2,2.364580035E-1,-8.238899708E-2,2.541065101E-1
5.529130742E0,1.012990028E-1,3.263300061E-1,-1.080180034E-1,3.583582703E-1
5.534141500E0,2.111420035E-1,4.176020026E-1,-6.208200008E-2,4.720450752E-1
5.539152269E0,2.970449924E-1,4.504120052E-1,5.719900131E-2,5.425665192E-1
5.544163269E0,3.001669943E-1,4.345459938E-1,5.890800059E-2,5.314137726E-1
5.549174035E0,2.628000081E-1,3.572010100E-1,2.654900029E-2,4.442535933E-1
5.554184574E0,1.887030005E-1,2.313259989E-1,-3.998500109E-2,3.011965147E-1
5.559195327E0,1.066100001E-1,1.209700033E-1,-1.141979992E-1,1.975869855E-1
5.564206096E0,9.282000363E-3,1.437699981E-2,-1.554879993E-1,1.564268890E-1
5.569216860E0,-9.416399896E-2,-1.093960032E-1,-1.665170044E-1,2.203684573E-1
5.574227629E0,-1.621530056E-1,-2.572070062E-1,-1.619859934E-1,3.445119785E-1
5.579238408E0,-1.843640059E-1,-3.542349935E-1,-1.463699937E-1,4.253195179E-1
5.584249177E0,-1.993999928E-1,-4.137899876E-1,-1.288419962E-1,4.770563603E-1
5.589259857E0,-2.238779962E-1,-4.510470033E-1,-8.756600320E-2,5.111091481E-1
5.594270701E0,-2.344619930E-1,-4.368410110E-1,-6.269700080E-2,4.997333379E-1
5.599281415E0,-2.065539956E-1,-3.613039851E-1,-2.037899941E-2,4.166778448E-1
5.604292182E0,-1.273439974E-1,-2.403270006E-1,3.240400180E-2,2.739043268E-1
5.609302951E0,-4.933200032E-2,-9.635999799E-2,6.245499849E-2,1.249780873E-1
5.614313721E0,6.702499837E-2,4.474399984E-2,1.220569983E-1,1.462610227E-1
5.619324490E0,2.003699988E-1,1.710789949E-1,1.418440044E-1,2.992254677E-1
5.624335249E0,3.066560030E-1,2.575550079E-1,1.312669963E-1,4.214303152E-1
5.629346018E0,3.776899874E-1,3.056609929E-1,1.044699997E-1,4.969832492E-1
5.634356778E0,3.822340071E-1,3.005180061E-1,5.886099860E-2,4.897739533E-1
5.639367319E0,3.710530102E-1,2.582969964E-1,5.854500085E-2,4.558784836E-1
5.644378081E0,3.518260121E-1,2.178259939E-1,6.752400100E-2,4.192722232E-1
5.649388850E0,3.343980014E-1,2.027380019E-1,9.789399803E-2,4.031227551E-1
5.654399630E0,3.026809990E-1,2.078769952E-1,1.163759977E-1,3.851908685E-1
5.659410399E0,2.988409996E-1,2.118459940E-1,1.490859985E-1,3.954886891E-1
5.664421168E0,2.710610032E-1,2.099560052E-1,1.578360051E-1,3.774490642E-1
5.669431936E0,2.364809960E-1,1.902019978E-1,1.211609989E-1,3.267721669E-1
5.674442706E0,1.790640056E-1,1.597490013E-1,4.396799952E-2,2.439607479E-1
5.679453462E0,1.135110036E-1,9.493900090E-2,-1.048849970E-1,1.813808822E-1
5.684464155E0,4.214899987E-2,1.294799987E-2,-2.705039978E-1,2.740740807E-1
5.689474999E0,-5.152200162E-2,-8.085700125E-2,-4.243159890E-1,4.350131375E-1
5.694485684E0,-1.814810038E-1,-1.692859977E-1,-5.400599837E-1,5.943550200E-1
5.699496528E0,-3.198539913E-1,-2.309300005E-1,-5.819129944E-1,7.030348312E-1
5.704507299E0,-4.300239980E-1,-2.920460105E-1,-5.764859915E-1,7.762394022E-1
5.709517991E0,-4.607200027E-1,-3.289240003E-1,-4.621360004E-1,7.307691849E-1
5.714528759E0,-4.336520135E-1,-3.233129978E-1,-2.246820033E-1,5.857195284E-1
5.719539539E0,-3.780690134E-1,-2.981120050E-1,9.382000193E-3,4.815547407E-1
5.724550308E0,-3.128130138E-1,-2.917869985E-1,2.329750061E-1,4.871026458E-1
5.729561062E0,-2.331950068E-1,-2.764300108E-1,4.606879950E-1,5.856849757E-1
5.734571832E0,-1.716170013E-1,-2.365259975E-1,6.643940210E-1,7.258211610E-1
5.739582601E0,-1.106519997E-1,-2.059369981E-1,8.227890134E-1,8.553570440E-1
5.744593385E0,-7.891999558E-3,-1.195869967E-1,9.578949809E-1,9.653632103E-1
5.749604154E0,8.305100352E-2,-5.403200164E-2,9.909980297E-1,9.959387638E-1
5.754614914E0,1.706490070E-1,1.170300040E-2,9.081490040E-1,9.241172313E-1
5.759625684E0,1.905770004E-1,4.500500113E-2,7.263000011E-1,7.522344946E-1
5.764636454E0,1.565880030E-1,5.371399969E-2,4.694890082E-1,4.978201736E-1
5.769646993E0,1.047850028E-1,5.035499856E-2,1.806460023E-1,2.148220213E-1
5.774657760E0,6.296499819E-2,5.002300069E-2,-7.601000369E-2,1.106544724E-1
5.779668529E0,-1.165399980E-2,6.332200021E-2,-2.193949968E-1,2.286474492E-1
5.784679298E0,-9.082300216E-2,9.333100170E-2,-2.498060018E-1,2.817135640E-1
5.789690068E0,-1.325860023E-1,1.282310039E-1,-2.440569997E-1,3.059183837E-1
5.794700823E0,-1.174739972E-1,1.231539994E-1,-2.649329901E-1,3.148913095E-1
5.799711517E0,-2.387800068E-2,9.499800205E-2,-3.248719871E-1,3.393178264E-1
5.804722289E0,6.719499826E-2,3.202300146E-2,-4.837169945E-1,4.894106366E-1
5.809733059E0,1.063010022E-1,-2.692800015E-2,-5.883650184E-1,5.984967962E-1
5.814743828E0,1.083920002E-1,2.454000060E-3,-6.333190203E-1,6.425323566E-1
5.819754606E0,8.100900054E-2,6.080399826E-2,-5.564479828E-1,5.655916742E-1
5.824765375E0,5.318000168E-2,1.446119994E-1,-5.128610134E-1,5.355064538E-1
5.829776140E0,4.766700044E-2,2.324219942E-1,-4.190410078E-1,4.815469785E-1
5.834786910E0,9.134300053E-2,3.272179961E-1,-2.204830050E-1,4.050036003E-1
5.839797680E0,1.784729958E-1,3.961229920E-1,8.258000016E-3,4.345506065E-1
5.844808459E0,2.786099911E-1,4.370999932E-1,2.336950004E-1,5.685888536E-1
5.849819228E0,3.600539863E-1,4.332840145E-1,3.700560033E-1,6.740291951E-1
5.854829757E0,3.422060013E-1,4.016050100E-1,4.489449859E-1,6.927792807E-1
5.859840755E0,2.978070080E-1,3.465139866E-1,4.347409904E-1,6.306827139E-1
5.864851295E0,3.206889927E-1,3.129670024E-1,4.134320021E-1,6.096849965E-1
5.869862049E0,3.474189937E-1,2.066130042E-1,2.674889863E-1,4.847053213E-1
5.874872818E0,2.669990063E-1,3.861200064E-2,2.812699974E-2,2.712387953E-1
5.879883587E0,7.553900033E-2,-1.352269948E-1,-2.445490062E-1,2.894765917E-1
5.884894356E0,-1.576810032E-1,-2.738179862E-1,-4.286589921E-1,5.325299239E-1
5.889905135E0,-3.591699898E-1,-3.511370122E-1,-4.599829912E-1,6.810907687E-1
5.894915829E0,-4.755760133E-1,-3.657059968E-1,-3.436779976E-1,6.913956802E-1
5.899926645E0,-5.098879933E-1,-3.634879887E-1,-1.494760066E-1,6.437797451E-1
5.904937416E0,-4.622640014E-1,-3.221209943E-1,8.441200107E-2,5.697151287E-1
5.909948109E0,-3.183250129E-1,-2.432380021E-1,3.485270143E-1,5.310052911E-1
5.914958876E0,-1.403529942E-1,-1.383440048E-1,5.453860164E-1,5.798999340E-1
5.919969722E0,8.746000007E-3,-6.693100184E-2,7.086679935E-1,7.118753940E-1
5.924980416E0,1.027759984E-1,-3.405000083E-3,7.768520117E-1,7.836284502E-1
5.929991198E0,1.694570035E-1,5.672200024E-2,7.957479954E-1,8.155660203E-1
5.935001967E0,2.098249942E-1,1.035809964E-1,7.393119931E-1,7.754597180E-1
5.940012813E0,2.595829964E-1,1.467619985E-1,6.529719830E-1,7.178403909E-1
5.945023502E0,2.699449956E-1,1.908130050E-1,4.868130088E-1,5.884443976E-1
5.950034270E0,2.355840057E-1,2.001450062E-1,2.075610012E-1,3.723431434E-1
5.955045053E0,1.852509975E-1,1.885049939E-1,-2.504500002E-2,2.654794095E-1
5.960055593E0,1.287190020E-1,1.780019999E-1,-2.446579933E-1,3.288021094E-1
5.965066361E0,6.801199913E-2,1.512050033E-1,-3.777340055E-1,4.125185619E-1
5.970077121E0,1.017300040E-2,1.298319995E-1,-5.009319782E-1,5.175835052E-1
5.975087890E0,-4.761299863E-2,9.303200245E-2,-6.241279840E-1,6.328172656E-1
5.980098668E0,-7.812300324E-2,4.878199846E-2,-7.023929954E-1,7.084058208E-1
5.985109438E0,-6.167000160E-2,2.792499959E-2,-7.359660268E-1,7.390730595E-1
5.990120222E0,-3.715699911E-2,-1.845699921E-2,-6.943249702E-1,6.955634175E-1
5.995130991E0,-2.453000052E-3,-4.353300110E-2,-6.585270166E-1,6.599689167E-1
6.000141740E0,2.556700073E-2,-5.479300022E-2,-5.782430172E-1,5.813956754E-1
6.005152510E0,5.157899857E-2,-6.446699798E-2,-4.845100045E-1,4.914939790E-1
6.010163195E0,8.953599632E-2,-5.650600046E-2,-3.675889969E-1,3.825327350E-1
6.015173962E0,1.090790033E-1,-5.756700039E-2,-2.774800062E-1,3.036566191E-1
6.020184731E0,1.271229982E-1,-7.492200285E-2,-2.117239982E-1,2.580709488E-1
6.025195520E0,1.462610066E-1,-7.560200244E-2,-1.509570032E-1,2.233740398E-1
6.030206289E0,1.481339931E-1,-7.224299759E-2,-1.330910027E-1,2.118394336E-1
6.035217063E0,8.898100257E-2,-5.979900062E-2,-9.809300303E-2,1.453126854E-1
6.040227832E0,2.773999935E-3,-5.239199847E-2,-3.878400102E-2,6.524427419E-2
6.045238616E0,-6.614399701E-2,-5.176300183E-2,6.116100028E-2,1.038994930E-1
6.050249386E0,-9.959000349E-2,-5.284700170E-2,2.062620074E-1,2.350638000E-1
6.055260161E0,-7.233499736E-2,-4.412399977E-2,3.175159991E-1,3.286269753E-1
6.060270930E0,-2.987900004E-2,-2.083200030E-2,4.643209875E-1,4.657474705E-1
6.065281699E0,4.423199967E-2,4.947900027E-2,6.302409768E-1,6.337257531E-1
6.070292238E0,1.313540041E-1,1.255809963E-1,7.389860153E-1,7.610024914E-1
6.075302995E0,1.690710038E-1,1.559119970E-1,8.120959997E-1,8.440340443E-1
6.080313765E0,2.364899963E-1,1.756629944E-1,7.660859823E-1,8.207756930E-1
6.085324534E0,2.658270001E-1,1.495600045E-1,6.249430180E-1,6.954034546E-1
6.090335303E0,2.021999955E-1,1.063679978E-1,3.986569941E-1,4.594849161E-1
6.095345997E0,7.077000290E-2,2.342700027E-2,1.635719985E-1,1.797582163E-1
6.100356817E0,-6.199299917E-2,-8.602699637E-2,-2.339999937E-2,1.085879184E-1
6.105367588E0,-2.035280019E-1,-1.678850055E-1,-2.193869948E-1,3.431321555E-1
6.110378372E0,-3.334349990E-1,-2.384549975E-1,-3.385629952E-1,5.316620977E-1
6.115389064E0,-4.109449983E-1,-2.607609928E-1,-4.071809947E-1,6.345616199E-1
6.120399832E0,-4.008600116E-1,-2.645350099E-1,-4.828639925E-1,6.810471023E-1
6.125410591E0,-3.320069909E-1,-2.431109995E-1,-5.300189853E-1,6.710079916E-1
6.130421360E0,-2.340900004E-1,-1.883199960E-1,-5.890499949E-1,6.612431064E-1
6.135432115E0,-1.362639964E-1,-6.558199972E-2,-5.902150273E-1,6.092804394E-1
6.140442885E0,-8.283299953E-2,3.754400089E-2,-5.647519827E-1,5.720276740E-1
6.145453654E0,-4.730699956E-2,1.362369955E-1,-4.626699984E-1,4.846256272E-1
6.150464432E0,-3.511999967E-3,2.195159942E-1,-3.058750033E-1,3.765091281E-1
6.155475201E0,5.816600099E-2,2.716139853E-1,-1.305969954E-1,3.069413883E-1
6.160485742E0,1.265729964E-1,2.765470147E-1,-1.556999981E-3,3.041404265E-1
6.165496741E0,1.999190003E-1,2.326480001E-1,6.674700230E-2,3.139233361E-1
6.170507281E0,2.157920003E-1,1.551650017E-1,1.055260003E-1,2.859687079E-1
6.175518048E0,1.667650044E-1,5.666900054E-2,1.029959992E-1,2.040346004E-1
6.180528813E0,6.417600065E-2,-4.578199983E-2,1.000540033E-1,1.273787822E-1
6.185539582E0,-5.595200136E-2,-1.285080016E-1,1.159539968E-1,1.819072904E-1
6.190550351E0,-1.674440056E-1,-1.832010001E-1,9.847299755E-2,2.670150421E-1
6.195561139E0,-2.266760021E-1,-2.153880000E-1,7.385999709E-2,3.212931678E-1
6.200571909E0,-2.145600021E-1,-2.491029948E-1,6.322500110E-2,3.347920209E-1
6.205582612E0,-1.752250046E-1,-2.190690041E-1,8.372700214E-2,2.927545758E-1
6.210593379E0,-1.187520027E-1,-1.853249967E-1,1.114109978E-1,2.466977969E-1
6.215604129E0,-6.430300325E-2,-1.434070021E-1,1.463769972E-1,2.147712034E-1
6.220614899E0,-2.317200042E-2,-9.634599835E-2,1.506900042E-1,1.803523506E-1
6.225625668E0,2.240000031E-4,-5.347299948E-2,1.578360051E-1,1.666481814E-1
6.230636437E0,5.040499941E-2,2.271899953E-2,1.942310035E-1,2.019467743E-1
6.235647206E0,1.381649971E-1,1.011539996E-1,2.404969931E-1,2.952295746E-1
6.240657971E0,2.350479960E-1,1.560470015E-1,2.749730051E-1,3.939649485E-1
6.245668741E0,2.905369997E-1,1.479710042E-1,2.378070056E-1,4.035583455E-1
6.250679511E0,3.039959967E-1,9.512300044E-2,1.718920022E-1,3.619513941E-1
6.255690280E0,2.885729969E-1,2.677500062E-2,8.442699909E-2,3.018595590E-1
6.260700819E0,2.353810072E-1,4.271000158E-3,2.163999947E-3,2.354296984E-1
6.265711581E0,1.682630032E-1,1.337500010E-2,-1.034700032E-2,1.691105830E-1
6.270722350E0,1.433230042E-1,5.577600002E-2,1.423000009E-3,1.538000997E-1
6.275733120E0,1.341309994E-1,7.435899973E-2,-1.768600009E-2,1.543799872E-1
6.280743894E0,1.383759975E-1,7.646200061E-2,-8.207800239E-2,1.781324022E-1
6.285754663E0,7.396099716E-2,4.261999950E-2,-5.345910192E-1,5.413633264E-1
6.290765432E0,-4.940150082E-1,-7.332599908E-2,-2.919539928E0,2.961948839E0
6.295776217E0,-7.602009773E-1,-9.801600128E-2,-3.141974926E0,3.234117978E0
6.300786987E0,-5.823879838E-1,-8.094999939E-2,-2.922972918E0,2.981526344E0
6.305797757E0,-4.021770060E-1,5.082999915E-2,-2.101531029E0,2.140271641E0
6.310808463E0,-3.784630001E-1,-7.503599674E-2,-1.537809014E0,1.585471920E0
6.315819308E0,-3.080869913E-1,-1.793700010E-1,-8.494769931E-1,9.212504292E-1
6.320830002E0,-1.693180054E-1,-1.926559955E-1,-8.659800142E-2,2.707104235E-1
6.325840769E0,-6.722799689E-2,-1.493840069E-1,8.028259873E-1,8.193685075E-1
6.330851538E0,-2.206000034E-3,-8.783700317E-2,1.659904957E0,1.662228826E0
6.335862313E0,1.533699967E-2,-3.875499964E-2,2.282424927E0,2.282805449E0
6.340873159E0,1.236800011E-2,-1.041799970E-2,2.642108917E0,2.642158404E0
6.345883872E0,-3.967000172E-3,8.688000031E-3,2.868292093E0,2.868307994E0
6.350894639E0,-4.832199961E-2,1.351200044E-2,3.006464958E0,3.006883625E0
6.355905180E0,-1.472239941E-1,-1.035000011E-2,2.920222998E0,2.923950133E0
6.360915947E0,-2.891429961E-1,-9.351900220E-2,2.645252943E0,2.662651425E0
6.365926716E0,-3.963750005E-1,-2.115640044E-1,2.229060888E0,2.273892019E0
6.370937476E0,-3.979299963E-1,-5.406780243E-1,1.829187989E0,1.948489083E0
6.375948245E0,-2.523930073E-1,-6.390860081E-1,9.708909988E-1,1.189437887E0
6.380959004E0,-1.408749968E-1,-5.200600028E-1,-5.266699940E-2,5.413704684E-1
6.385969773E0,-1.432100032E-2,-4.660519958E-1,-9.988700151E-1,1.102338814E0
6.390980543E0,-5.708400160E-2,-4.304560125E-1,-1.867408991E0,1.917229068E0
6.395991313E0,-2.539350092E-1,-3.135699928E-1,-2.525182009E0,2.557215929E0
