"Time (s)","Linear Acceleration x (m/s^2)","Linear Acceleration y (m/s^2)","Linear Acceleration z (m/s^2)","Absolute acceleration (m/s^2)"
2.834551000E-2,-3.892099857E-1,2.414440066E-1,-9.083549976E-1,1.017294659E0
3.335628000E-2,-2.900550067E-1,2.315459996E-1,-5.037040114E-1,6.256701911E-1
3.836704900E-2,-1.764999926E-1,2.154719979E-1,-1.783269942E-1,3.307279034E-1
4.337779800E-2,1.623100042E-2,2.212840021E-1,3.305999935E-2,2.243279263E-1
4.838856700E-2,2.441979945E-1,1.518480033E-1,-7.663200051E-2,2.975952622E-1
5.339933700E-2,3.870350122E-1,6.117200106E-2,-3.007330000E-1,4.939417493E-1
5.841009200E-2,4.100669920E-1,-4.622599855E-2,-5.096309781E-1,6.557556822E-1
6.342086100E-2,3.587889969E-1,-1.734260023E-1,-7.367659807E-1,8.376337105E-1
6.843163000E-2,2.745800018E-1,-2.949239910E-1,-9.669560194E-1,1.047558247E0
7.344239900E-2,2.021940053E-1,-3.563530147E-1,-1.135244012E0,1.206917086E0
7.845318300E-2,1.219170019E-1,-3.529160023E-1,-1.222671032E0,1.278412262E0
8.346387700E-2,5.744599923E-2,-3.086470068E-1,-1.236466050E0,1.275700322E0
8.847465900E-2,-5.568999797E-3,-2.333700061E-1,-1.140673041E0,1.164314202E0
9.348542900E-2,-5.274400115E-2,-1.396930069E-1,-1.018877029E0,1.029760393E0
9.849619800E-2,-3.785200045E-2,-3.794600070E-2,-8.947709799E-1,8.963747985E-1
1.035069660E-1,2.957499959E-2,7.812400162E-2,-7.637509704E-1,7.683056586E-1
1.085177350E-1,1.289449930E-1,2.051209956E-1,-6.090880036E-1,6.555071550E-1
1.135285040E-1,2.475859970E-1,3.402459919E-1,-4.235889912E-1,5.970710128E-1
1.185390360E-1,3.295019865E-1,4.198830128E-1,-2.525950074E-1,5.904892389E-1
1.235498030E-1,4.198789895E-1,4.915080070E-1,-8.643800020E-2,6.521886343E-1
1.285605720E-1,5.259820223E-1,6.038820148E-1,8.010400087E-2,8.048274514E-1
1.335713370E-1,6.041749716E-1,5.939810276E-1,9.856700152E-2,8.529691150E-1
1.385821060E-1,6.292930245E-1,5.376120210E-1,1.554429978E-1,8.421394905E-1
1.435928750E-1,6.099100113E-1,4.200789928E-1,2.696399987E-1,7.881385100E-1
1.486036580E-1,5.518440008E-1,2.433779985E-1,4.480380118E-1,7.513339546E-1
1.536144280E-1,1.983080059E-1,4.451699927E-2,7.610909939E-1,7.877609596E-1
1.586251890E-1,-1.667349935E-1,-1.418240070E-1,1.013298988E0,1.036672295E0
1.636359590E-1,-1.194150001E-1,-3.486239910E-1,9.356179833E-1,1.005574284E0
1.686467280E-1,-9.765999764E-2,-4.938910007E-1,9.037569761E-1,1.034525238E0
1.736574870E-1,-1.196139976E-1,-5.788130164E-1,1.018267989E0,1.177370678E0
1.786681800E-1,-1.399859935E-1,-5.781310201E-1,1.262725949E0,1.395818175E0
1.836789380E-1,-1.113860011E-1,-4.914489985E-1,1.486420989E0,1.569514675E0
1.886897070E-1,-9.517000057E-3,-3.742249906E-1,1.598536015E0,1.641783270E0
1.937002380E-1,8.449000120E-2,-2.721869946E-1,1.646986961E0,1.671463542E0
1.987112360E-1,1.333539933E-1,-1.950380057E-1,1.655833006E0,1.672604572E0
2.037220070E-1,1.830109954E-1,-1.618359983E-1,1.567661047E0,1.586582829E0
2.087327610E-1,1.736859977E-1,-1.674170047E-1,1.363237977E0,1.384417950E0
2.137435310E-1,1.358900070E-1,-2.114450037E-1,1.116593957E0,1.144533594E0
2.187542850E-1,9.893599898E-2,-1.881929934E-1,8.081619740E-1,8.356618400E-1
2.237650540E-1,7.347299904E-2,-1.172650009E-1,4.794540107E-1,4.990245589E-1
2.287755930E-1,3.055400029E-2,-3.468399867E-2,1.304650009E-1,1.384111381E-1
2.337863500E-1,-2.303799987E-2,3.429099917E-2,-1.744509935E-1,1.792756849E-1
2.387971190E-1,-9.428499639E-2,9.050700068E-2,-4.737269878E-1,4.914249045E-1
2.438078930E-1,-1.759870052E-1,1.348890066E-1,-7.316449881E-1,7.645069383E-1
2.488186630E-1,-2.614440024E-1,1.761559993E-1,-8.480780125E-1,9.047763357E-1
2.538294320E-1,-3.208990097E-1,1.947460026E-1,-8.379459977E-1,9.181806331E-1
2.588401960E-1,-3.575359881E-1,2.339749932E-1,-7.468640208E-1,8.604546158E-1
2.638509650E-1,-3.718610108E-1,2.634150088E-1,-6.181060076E-1,7.679343167E-1
2.688617400E-1,-3.899979889E-1,2.722229958E-1,-4.016529918E-1,6.225182058E-1
2.738725100E-1,-3.791010082E-1,2.747130096E-1,-1.549980044E-1,4.931624412E-1
2.788831840E-1,-3.303529918E-1,2.307289988E-1,7.380700111E-2,4.096540534E-1
2.838939510E-1,-2.254170030E-1,1.614950001E-1,2.608340085E-1,3.806938932E-1
2.889047160E-1,-1.114989966E-1,7.391099632E-2,4.110159874E-1,4.322372075E-1
2.939154850E-1,-6.222100183E-2,-4.005999770E-3,5.224189758E-1,5.261264937E-1
2.989262400E-1,-1.056319997E-1,3.460000083E-2,6.702150106E-1,6.793698845E-1
3.039370090E-1,-9.187299758E-2,-1.099070013E-1,6.763020158E-1,6.913064539E-1
3.089477790E-1,3.010199964E-2,-2.144739926E-1,6.268690228E-1,6.632269564E-1
3.139585350E-1,1.680089980E-1,-2.682949901E-1,5.962420106E-1,6.750657452E-1
3.189693050E-1,2.559599876E-1,-3.006579876E-1,5.822730064E-1,7.035286738E-1
3.239798580E-1,3.070290089E-1,-3.190500140E-1,5.659869909E-1,7.186104631E-1
3.289906250E-1,3.618980050E-1,-2.749789953E-1,5.740879774E-1,7.322298954E-1
3.340013840E-1,3.814930022E-1,-1.863629967E-1,5.782279968E-1,7.173671958E-1
3.390121530E-1,3.764260113E-1,-8.928599954E-2,5.713359714E-1,6.899951622E-1
3.440229090E-1,3.244259953E-1,2.038500085E-2,5.057950020E-1,6.012456725E-1
3.490336780E-1,2.384330034E-1,1.447149962E-1,4.056549966E-1,4.922892478E-1
3.540444610E-1,1.145149991E-1,2.182350010E-1,2.706339955E-1,3.660368290E-1
3.590551550E-1,-2.791900001E-2,2.751820087E-1,1.316940039E-1,3.063460775E-1
3.640659230E-1,-1.488599926E-1,3.121080101E-1,3.635700047E-2,3.476960437E-1
3.690767010E-1,-2.627210021E-1,3.181880116E-1,-6.826800108E-2,4.182421017E-1
3.740874700E-1,-3.555839956E-1,2.994309962E-1,-1.657260060E-1,4.935220446E-1
3.790982490E-1,-4.141069949E-1,2.474160045E-1,-2.683010101E-1,5.519825310E-1
3.841090190E-1,-3.956150115E-1,1.703860015E-1,-3.620629907E-1,5.627008406E-1
3.891197880E-1,-3.125169873E-1,9.048199654E-2,-4.066799879E-1,5.208094389E-1
3.941305620E-1,-1.835979968E-1,4.537599906E-2,-3.710649908E-1,4.164810117E-1
3.991413310E-1,-5.184400082E-2,2.476299927E-2,-3.076969981E-1,3.130150942E-1
4.041521000E-1,5.528099835E-2,-4.939000122E-3,-2.643209994E-1,2.700851222E-1
4.091628700E-1,1.225290000E-1,-2.034899965E-2,-2.071990073E-1,2.415757982E-1
4.141736490E-1,1.465349942E-1,-2.228900045E-2,-1.336469948E-1,1.995766101E-1
4.191841880E-1,1.445599943E-1,7.125999779E-3,-3.617699817E-2,1.491882939E-1
4.241949660E-1,1.471929997E-1,4.085600004E-2,6.379400194E-2,1.655435489E-1
4.292059660E-1,1.675579995E-1,6.667199731E-2,1.925549954E-1,2.638148303E-1
4.342165110E-1,1.889310032E-1,1.234479994E-1,2.739149928E-1,3.549137301E-1
4.392272780E-1,2.138140053E-1,1.539520025E-1,3.293699920E-1,4.217845891E-1
4.442380480E-1,2.540099919E-1,1.211460009E-1,3.323270082E-1,4.354752231E-1
4.492488120E-1,2.976300120E-1,1.105889976E-1,3.714509904E-1,4.886608116E-1
4.542595810E-1,2.798700035E-1,8.667600155E-2,3.989700079E-1,4.949919346E-1
4.592702750E-1,2.140270025E-1,4.499100149E-2,3.909589946E-1,4.479739763E-1
4.642811240E-1,1.454430073E-1,2.072999999E-2,3.714790046E-1,3.994747203E-1
4.692918950E-1,1.088149995E-1,4.165299982E-2,3.717570007E-1,3.895881724E-1
4.743026640E-1,8.686800301E-2,8.796200156E-2,3.751479983E-1,3.949928915E-1
4.793134290E-1,8.391500264E-2,1.335320026E-1,3.576599956E-1,3.908877023E-1
4.843241990E-1,8.117900044E-2,1.949449927E-1,3.456789851E-1,4.050772038E-1
4.893349050E-1,1.023309976E-1,2.440319955E-1,2.888410091E-1,3.917299790E-1
4.943456720E-1,1.328240037E-1,2.976300120E-1,2.134449929E-1,3.895954376E-1
4.993564550E-1,1.864729971E-1,3.418219984E-1,1.074199975E-1,4.039226573E-1
5.043672250E-1,2.066449970E-1,3.518060148E-1,-5.576000083E-3,4.080449958E-1
5.093777700E-1,2.292589992E-1,3.359670043E-1,-9.469900280E-2,4.176139579E-1
5.143887680E-1,2.354899943E-1,2.953810096E-1,-1.769260019E-1,4.171430071E-1
5.193995390E-1,2.328899950E-1,2.220039964E-1,-2.430180013E-1,4.032136817E-1
5.244103040E-1,2.146089971E-1,1.426279992E-1,-2.811180055E-1,3.813490538E-1
5.294210730E-1,1.534810066E-1,3.454700112E-2,-2.914299965E-1,3.311817591E-1
5.344318570E-1,8.100800216E-2,-2.231699973E-2,-2.784050107E-1,2.908086912E-1
5.394423960E-1,2.363000065E-3,-7.374399900E-2,-2.945950031E-1,3.036938870E-1
5.444531630E-1,-9.419000149E-2,-1.387259960E-1,-3.328379989E-1,3.726899406E-1
5.494639220E-1,-1.923110038E-1,-1.958059967E-1,-3.285180032E-1,4.280742797E-1
5.544746910E-1,-2.645269930E-1,-2.196879983E-1,-2.934280038E-1,4.520368791E-1
5.594854610E-1,-3.049539924E-1,-2.072480023E-1,-2.655459940E-1,4.543823796E-1
5.644962300E-1,-3.405030072E-1,-1.733620018E-1,-1.873569936E-1,4.255576631E-1
5.695069990E-1,-3.389709890E-1,-1.445939988E-1,-1.139300019E-1,3.857315144E-1
5.745177680E-1,-3.368020058E-1,-1.164600030E-1,-3.567000106E-2,3.581492320E-1
5.795284630E-1,-2.574389875E-1,-5.407600105E-2,9.294699878E-2,2.789949655E-1
5.845392210E-1,-1.190999970E-1,2.961000055E-2,1.787039936E-1,2.167871738E-1
5.895499900E-1,1.422300003E-2,8.717899770E-2,2.430730015E-1,2.586251253E-1
5.945607690E-1,9.655799717E-2,7.735600322E-2,2.786070108E-1,3.048430162E-1
5.995715390E-1,1.439789981E-1,3.703900054E-2,3.115209937E-1,3.451770111E-1
6.045823030E-1,1.324249953E-1,1.367499959E-2,3.253079951E-1,3.514949170E-1
6.095930720E-1,9.177699685E-2,-2.793399990E-2,3.366369903E-1,3.500396960E-1
6.146038320E-1,3.935699910E-2,-5.026099831E-2,2.954609990E-1,3.022785855E-1
6.196146020E-1,-8.092000149E-3,-4.673900083E-2,2.282350063E-1,2.331120606E-1
6.246253720E-1,-4.386899993E-2,-3.654700145E-2,1.803999990E-1,1.892203269E-1
6.296359150E-1,-6.134400144E-2,-1.979300007E-2,1.088759974E-1,1.265260138E-1
6.346469130E-1,-7.266599685E-2,-2.670999989E-2,3.977800161E-2,8.704056873E-2
6.396574540E-1,-9.446100146E-2,-5.882300064E-2,-3.903700039E-2,1.179275778E-1
6.446682210E-1,-1.010999978E-1,-8.468399942E-2,-5.351100117E-2,1.423236331E-1
6.496789900E-1,-1.047279984E-1,-7.233499736E-2,-1.014209986E-1,1.627468108E-1
6.546897590E-1,-8.921899647E-2,-6.011600047E-2,-1.564739943E-1,1.898896356E-1
6.597005290E-1,-6.687899679E-2,-6.909199804E-2,-2.164029926E-1,2.368053201E-1
6.647112890E-1,-5.894999951E-2,-8.712700009E-2,-2.836199999E-1,3.025004478E-1
6.697220580E-1,-6.525599957E-2,-1.094349995E-1,-3.437559903E-1,3.666095272E-1
6.747328270E-1,-5.795799941E-2,-1.243890002E-1,-4.015829861E-1,4.243826667E-1
6.797435220E-1,-4.506200179E-2,-1.205840036E-1,-4.115760028E-1,4.312376283E-1
6.847542890E-1,-5.259599909E-2,-1.054190025E-1,-3.952029943E-1,4.123892723E-1
6.897650580E-1,-7.302299887E-2,-9.292399883E-2,-3.525139987E-1,3.717974546E-1
6.947758370E-1,-8.973000199E-2,-7.140699774E-2,-2.738870084E-1,2.969251185E-1
6.997866060E-1,-1.141669974E-1,-6.207500026E-2,-2.024299949E-1,2.405520979E-1
7.047973610E-1,-1.736959964E-1,-8.070299774E-2,-1.119349971E-1,2.218393937E-1
7.098081300E-1,-2.044609934E-1,-6.586299837E-2,9.680000134E-3,2.150254282E-1
7.148189130E-1,-2.231680006E-1,-3.728299960E-2,9.554400295E-2,2.456066673E-1
7.198296830E-1,-2.045010030E-1,1.387500018E-2,1.912070066E-1,2.803092850E-1
7.248404530E-1,-1.606619954E-1,4.280599952E-2,2.486470044E-1,2.991153008E-1
7.298512090E-1,-9.426899999E-2,7.785599679E-2,2.559649944E-1,2.836657874E-1
7.348619780E-1,-2.660400048E-2,7.688800246E-2,2.273309976E-1,2.414516934E-1
7.398725220E-1,2.820999920E-2,4.576599970E-2,1.912440062E-1,1.986569925E-1
7.448832890E-1,8.929999918E-2,1.821899973E-2,1.500470042E-1,1.755577548E-1
7.498940580E-1,1.216209978E-1,-1.498300023E-2,1.324460059E-1,1.804386375E-1
7.549048130E-1,1.421809942E-1,-2.822499909E-2,1.027209982E-1,1.776617267E-1
7.599158130E-1,1.487729996E-1,-8.942399919E-2,9.406600147E-2,1.974296576E-1
7.649263480E-1,1.276910007E-1,-1.275500059E-1,1.114839986E-1,2.121383455E-1
7.699370380E-1,9.587799758E-2,-1.269520074E-1,1.791539937E-1,2.395945660E-1
7.749478950E-1,6.994699687E-2,-7.533500344E-2,2.017949969E-1,2.264711149E-1
7.799586660E-1,3.078100085E-2,-1.387299970E-2,2.489019930E-1,2.511814728E-1
7.849694100E-1,-5.166999996E-3,4.775699973E-2,3.061180115E-1,3.098639473E-1
7.899801790E-1,-1.237799972E-2,8.120600134E-2,3.302310109E-1,3.402942111E-1
7.949908670E-1,-1.019699965E-2,9.859599918E-2,3.331600130E-1,3.475927849E-1
8.000016340E-1,1.764200069E-2,1.001259983E-1,2.956809998E-1,3.126718877E-1
8.050124030E-1,4.725899920E-2,9.070099890E-2,2.249539942E-1,2.471120873E-1
8.100231770E-1,7.393600047E-2,8.937499672E-2,1.473259926E-1,1.875083206E-1
8.150337180E-1,6.036299840E-2,7.751400024E-2,7.951399684E-2,1.263906148E-1
8.200447160E-1,5.165199935E-2,9.979200363E-2,2.645199932E-2,1.154386473E-1
8.250554910E-1,6.155100092E-2,1.299259961E-1,-2.339000115E-3,1.437872077E-1
8.300660300E-1,1.034559980E-1,1.352999955E-1,-4.061999917E-2,1.750977346E-1
8.350767970E-1,1.442569941E-1,1.189630032E-1,-1.028579995E-1,2.134058212E-1
8.400875660E-1,1.655469984E-1,9.113000333E-2,-1.747850031E-1,2.574107291E-1
8.450983350E-1,1.428239942E-1,7.782199979E-2,-2.561990023E-1,3.034680967E-1
8.501091050E-1,8.892700076E-2,5.108400062E-2,-3.567790091E-1,3.712261412E-1
8.551198600E-1,3.241699934E-2,2.560899965E-2,-4.287549853E-1,4.307406646E-1
8.601306290E-1,-4.095600173E-2,4.004000220E-3,-4.960989952E-1,4.978028115E-1
8.651413980E-1,-1.102660000E-1,-8.829000406E-3,-5.086309910E-1,5.205209189E-1
8.701521770E-1,-1.482959986E-1,-2.898499928E-2,-4.737930000E-1,4.973043738E-1
8.751629470E-1,-1.699530035E-1,-3.057499975E-2,-4.082809985E-1,4.432969972E-1
8.801736310E-1,-1.503250003E-1,-3.477400169E-2,-2.979300022E-1,3.355132235E-1
8.851844750E-1,-1.066040024E-1,-3.006600030E-2,-1.833589971E-1,2.142169450E-1
8.901951700E-1,-7.166899741E-2,-3.558300063E-2,-6.691099703E-2,1.043056885E-1
8.952059130E-1,-5.645199865E-2,-2.179000061E-3,7.327599823E-2,9.252539171E-2
9.002166820E-1,-5.775599927E-2,1.262899954E-2,1.798619926E-1,1.893292990E-1
9.052274510E-1,-4.954100028E-2,1.599299908E-2,2.695809901E-1,2.745614630E-1
9.102382300E-1,-2.976300009E-2,7.853999734E-3,3.472029865E-1,3.485648222E-1
9.152487700E-1,8.379000239E-3,-1.431600004E-2,3.888030052E-1,3.891566939E-1
9.202595130E-1,3.668700159E-2,-1.784499921E-2,4.017829895E-1,4.038489207E-1
9.252702830E-1,6.527300179E-2,-1.518999971E-2,3.695439994E-1,3.755716554E-1
9.302810620E-1,7.579199970E-2,-2.328000031E-2,2.658649981E-1,2.774357274E-1
9.352918310E-1,7.099000365E-2,-6.739699841E-2,1.192559972E-1,1.542852193E-1
9.403025900E-1,4.629499838E-2,-1.254509985E-1,-3.688300028E-2,1.387138624E-1
9.453133590E-1,1.359099988E-2,-1.388610005E-1,-1.879269928E-1,2.340590681E-1
9.503241430E-1,-1.570999995E-2,-1.107909977E-1,-3.122130036E-1,3.316600804E-1
9.553349130E-1,-5.816400051E-2,-6.987400353E-2,-3.905999959E-1,4.010408758E-1
9.603456830E-1,-9.281600267E-2,-1.386899967E-2,-4.542059898E-1,4.637997852E-1
9.653564520E-1,-1.295170039E-1,1.291299984E-2,-4.961279929E-1,5.129175228E-1
9.703672210E-1,-1.521520019E-1,2.061600052E-2,-5.309000015E-1,5.526572742E-1
9.753779100E-1,-1.753499955E-1,1.479800045E-2,-5.323960185E-1,5.607246403E-1
9.803886770E-1,-1.761530042E-1,1.467300020E-2,-4.983240068E-1,5.287456795E-1
9.853994470E-1,-1.832010001E-1,8.728000335E-3,-4.263859987E-1,4.641592446E-1
9.904102160E-1,-1.616670042E-1,8.848999627E-3,-3.190540075E-1,3.577848303E-1
9.954209850E-1,-1.472239941E-1,3.597199917E-2,-1.522459984E-1,2.148202346E-1
1.000431754E0,-1.113860011E-1,6.574100256E-2,2.324000001E-3,1.293604330E-1
1.005442523E0,-7.282099873E-2,7.939100266E-2,1.613660008E-1,1.940227187E-1
1.010453293E0,-1.957800053E-2,9.321399778E-2,2.914830148E-1,3.066504450E-1
1.015464058E0,2.521600015E-2,8.382999897E-2,4.237360060E-1,4.326840859E-1
1.020474828E0,5.996099859E-2,8.427800238E-2,5.391529799E-1,5.489845524E-1
1.025485602E0,8.312900364E-2,6.849800050E-2,6.233890057E-1,6.326264772E-1
1.030496141E0,1.094949991E-1,5.055399984E-2,6.885089874E-1,6.989917650E-1
1.035506922E0,1.462640017E-1,4.179200158E-2,6.796110272E-1,6.964272237E-1
1.040517691E0,1.678040028E-1,-9.537000209E-3,6.061229706E-1,6.289945892E-1
1.045528691E0,1.466650069E-1,-1.070619971E-1,4.774740040E-1,5.108368820E-1
1.050539246E0,7.919999957E-2,-2.260809988E-1,3.223060071E-1,4.015799051E-1
1.055550013E0,1.464999979E-3,-3.122319877E-1,1.647129953E-1,3.530174658E-1
1.060560782E0,-1.122149974E-1,-3.384490013E-1,1.468299981E-2,3.568690553E-1
1.065571463E0,-2.285329998E-1,-3.201409876E-1,-1.108139977E-1,4.086530632E-1
1.070582307E0,-3.110669851E-1,-2.492849976E-1,-1.972409934E-1,4.447580114E-1
1.075592996E0,-3.404920101E-1,-1.530079991E-1,-2.661530077E-1,4.584579373E-1
1.080603763E0,-3.281970024E-1,-6.686700135E-2,-3.034250140E-1,4.519415973E-1
1.085614557E0,-2.619400024E-1,-1.176500041E-2,-3.572489917E-1,4.431453737E-1
1.090625326E0,-1.715169996E-1,3.176699951E-2,-3.847370148E-1,4.224331828E-1
1.095636095E0,-7.395400107E-2,6.882999837E-2,-3.979530036E-1,4.105768577E-1
1.100646854E0,1.207500044E-2,7.887200266E-2,-3.922779858E-1,4.003106501E-1
1.105657624E0,6.865800172E-2,7.900299877E-2,-3.844250143E-1,3.984193602E-1
1.110668394E0,1.060260013E-1,8.822199702E-2,-3.503699899E-1,3.765418483E-1
1.115679179E0,1.458259970E-1,1.201639995E-1,-3.210540116E-1,3.725322624E-1
1.120689948E0,1.858520061E-1,1.534339935E-1,-2.773399949E-1,3.674240483E-1
1.125700492E0,2.214840055E-1,1.836930066E-1,-1.953669935E-1,3.478024547E-1
1.130711259E0,2.299489975E-1,1.716780066E-1,-1.136149988E-1,3.086393484E-1
1.135722037E0,2.214840055E-1,1.302949935E-1,-2.983300015E-2,2.586927867E-1
1.140732807E0,1.898279935E-1,9.784200042E-2,9.912200272E-2,2.354419155E-1
1.145743552E0,1.362700015E-1,9.500999749E-2,2.352489978E-1,2.879904580E-1
1.150754321E0,1.083270013E-1,9.051799774E-2,3.522250056E-1,3.794610675E-1
1.155765066E0,8.690900356E-2,9.103199840E-2,3.927299976E-1,4.124037472E-1
1.160775836E0,1.021789983E-1,8.221399784E-2,4.165039957E-1,4.366637923E-1
1.165786606E0,1.181380004E-1,4.798400030E-2,4.138199985E-1,4.330196792E-1
1.170797386E0,1.325059980E-1,-6.415000185E-3,3.702310026E-1,3.932810534E-1
1.175808155E0,1.476480067E-1,-6.425099820E-2,2.976990044E-1,3.384565288E-1
1.180818924E0,1.424289942E-1,-1.114669964E-1,2.226469964E-1,2.868494285E-1
1.185829642E0,9.888000041E-2,-1.341640055E-1,1.356900036E-1,2.149162906E-1
1.190840409E0,2.501199953E-2,-1.001729965E-1,1.161449999E-1,1.554023499E-1
1.195851187E0,-4.601800069E-2,-4.846499860E-2,7.080800086E-2,9.736675749E-2
1.200861957E0,-1.075389981E-1,1.673000050E-3,2.599599957E-2,1.106491168E-1
1.205872726E0,-1.323110014E-1,5.251200125E-2,-2.077100053E-2,1.438580753E-1
1.210883266E0,-1.450430006E-1,5.268799886E-2,-9.136400372E-2,1.793345433E-1
1.215894020E0,-1.325690001E-1,2.461699955E-2,-1.621419936E-1,2.108804461E-1
1.220905020E0,-1.400399953E-1,1.087800041E-2,-2.162249982E-1,2.578425509E-1
1.225915560E0,-1.415099949E-1,1.847199909E-2,-2.272869945E-1,2.683759886E-1
1.230926322E0,-1.513610035E-1,3.529100120E-2,-1.905129999E-1,2.458674669E-1
1.235937091E0,-1.577820033E-1,8.225300163E-2,-1.105720028E-1,2.094919680E-1
1.240947861E0,-1.652929932E-1,1.258839965E-1,-1.855700091E-2,2.085974987E-1
1.245958861E0,-1.479289979E-1,1.731780022E-1,6.879299879E-2,2.379203345E-1
1.250969401E0,-1.128910035E-1,2.075349987E-1,1.203389987E-1,2.651351145E-1
1.255980187E0,-5.334899947E-2,2.129639983E-1,1.598149985E-1,2.715522308E-1
1.260990957E0,1.423200034E-2,1.855210066E-1,1.631380022E-1,2.474562617E-1
1.266001731E0,6.432899833E-2,1.145500019E-1,1.348710060E-1,1.882819992E-1
1.271012500E0,9.517899901E-2,3.606899828E-2,8.700700104E-2,1.339038189E-1
1.276023269E0,9.111200273E-2,-2.382400073E-2,5.796800181E-2,1.105860266E-1
1.281034039E0,8.094099909E-2,-5.872799829E-2,3.118100017E-2,1.047505508E-1
1.286044733E0,9.734900296E-2,-4.372899979E-2,9.278000332E-3,1.071220570E-1
1.291055500E0,1.137979999E-1,-2.902499959E-2,-7.770000026E-3,1.176979536E-1
1.296066274E0,1.279509962E-1,3.938000184E-3,-2.222399972E-2,1.299264077E-1
1.301077044E0,1.120190024E-1,3.825100139E-2,-5.790099874E-2,1.317722341E-1
1.306087813E0,5.987599865E-2,8.094400167E-2,-8.118099719E-2,1.293345311E-1
1.311098567E0,-1.385600027E-2,1.085869968E-1,-1.065120026E-1,1.527348399E-1
1.316109336E0,-7.627200335E-2,1.216939986E-1,-1.172989979E-1,1.854343622E-1
1.321120106E0,-1.280609965E-1,1.136910021E-1,-1.113350019E-1,2.042565677E-1
1.326130876E0,-1.278820038E-1,1.130049974E-1,-1.006710008E-1,1.981377973E-1
1.331141637E0,-9.606999904E-2,1.103470027E-1,-4.718000069E-2,1.537265696E-1
1.336152176E0,-5.201400071E-2,1.128470004E-1,3.955199942E-2,1.304003927E-1
1.341163183E0,3.665199876E-2,1.132979989E-1,1.259350032E-1,1.733188697E-1
1.346173723E0,1.132949963E-1,9.521699697E-2,1.880500019E-1,2.393007227E-1
1.351184519E0,1.763339937E-1,7.988400012E-2,2.212380022E-1,2.939751425E-1
1.356195289E0,1.987150013E-1,2.752199955E-2,2.254379988E-1,3.017737621E-1
1.361206294E0,1.887490004E-1,-3.544700146E-2,2.031130046E-1,2.795309781E-1
1.366216834E0,1.496559978E-1,-9.253899753E-2,1.328549981E-1,2.204786481E-1
1.371227508E0,7.511299849E-2,-1.413709968E-1,9.848300368E-2,1.879537797E-1
1.376238278E0,-1.095100027E-2,-1.775189936E-1,7.615000010E-2,1.934728405E-1
1.381249047E0,-9.909699857E-2,-2.034880072E-1,5.869400129E-2,2.338216628E-1
1.386259821E0,-1.731150001E-1,-2.058729976E-1,5.107200146E-2,2.737897802E-1
1.391270590E0,-2.194480002E-1,-1.970040053E-1,4.133199900E-2,2.977857234E-1
1.396281360E0,-2.411970049E-1,-1.844179928E-1,1.274800021E-2,3.038889645E-1
1.401292124E0,-2.323449999E-1,-1.565849930E-1,-2.032699995E-2,2.809203552E-1
1.406302893E0,-1.869679987E-1,-1.161540002E-1,-2.205399983E-2,2.212129364E-1
1.411313672E0,-1.293459982E-1,-7.740599662E-2,-4.034499824E-2,1.560442067E-1
1.416324442E0,-6.437599659E-2,-9.747999720E-3,-2.484500036E-2,6.968907001E-2
1.421335212E0,-3.926999867E-3,3.959900141E-2,-2.007999923E-3,3.984387411E-2
1.426345987E0,5.254599825E-2,8.306200057E-2,4.247099906E-2,1.070708346E-1
1.431356526E0,8.227100223E-2,1.277070045E-1,4.172300175E-2,1.575385848E-1
1.436367307E0,1.373759955E-1,1.547880024E-1,-1.993000042E-3,2.069672966E-1
1.441378076E0,1.544360071E-1,1.371749938E-1,-6.260100007E-2,2.158387000E-1
1.446388845E0,1.603879929E-1,8.552800119E-2,-1.379009932E-1,2.281579084E-1
1.451399615E0,1.343519986E-1,3.608499840E-2,-1.752720028E-1,2.237696619E-1
1.456410384E0,8.877599984E-2,-4.105899855E-2,-2.132329941E-1,2.345960982E-1
1.461421148E0,1.926200092E-2,-1.168960035E-1,-2.207050025E-1,2.504923122E-1
1.466431917E0,-5.954099819E-2,-2.147080004E-1,-2.097660005E-1,3.060170434E-1
1.471442687E0,-9.656500071E-2,-2.805649936E-1,-1.802919954E-1,3.471983851E-1
1.476453457E0,-1.208700016E-1,-3.110719919E-1,-1.367810071E-1,3.606721300E-1
1.481464150E0,-1.582770050E-1,-3.145639896E-1,-1.100329980E-1,3.689300402E-1
1.486474927E0,-1.855300069E-1,-2.898460031E-1,-7.830400020E-2,3.529356958E-1
1.491485697E0,-2.174029946E-1,-2.171189934E-1,-1.493899990E-2,3.076164708E-1
1.496496480E0,-2.447640002E-1,-1.353989989E-1,1.556499954E-2,2.801509841E-1
1.501507249E0,-2.704789937E-1,-6.589099765E-2,8.726499975E-2,2.917459336E-1
1.506518095E0,-2.713769972E-1,3.018999938E-3,1.451169997E-1,3.077556378E-1
1.511528866E0,-2.434049994E-1,5.717600137E-2,2.009660006E-1,3.207840742E-1
1.516539559E0,-1.939689964E-1,7.378000021E-2,2.425789982E-1,3.192366369E-1
1.521550097E0,-1.071019992E-1,8.875299990E-2,2.602980137E-1,2.951321554E-1
1.526561095E0,-2.526200004E-2,9.725300223E-2,2.278759927E-1,2.490457450E-1
1.531571636E0,5.664800107E-2,8.800300211E-2,1.739140004E-1,2.029768557E-1
1.536582413E0,1.295730025E-1,9.424500167E-2,1.033079997E-1,1.906405678E-1
1.541593182E0,1.799570024E-1,9.759200364E-2,3.990599886E-2,2.085694384E-1
1.546603946E0,2.273209989E-1,1.215460002E-1,-3.051600046E-2,2.595756017E-1
1.551614716E0,2.600519955E-1,1.358390003E-1,-8.178599924E-2,3.045787649E-1
1.556625480E0,2.626030147E-1,1.619289964E-1,-1.209520027E-1,3.313770212E-1
1.561636249E0,2.450859994E-1,1.717849970E-1,-1.672589928E-1,3.428597424E-1
1.566647018E0,2.079969943E-1,1.590179950E-1,-2.064870000E-1,3.334461778E-1
1.571657788E0,1.610019952E-1,1.336230040E-1,-2.387260050E-1,3.174379547E-1
1.576668482E0,1.157990023E-1,1.050660014E-1,-2.639830112E-1,3.068147712E-1
1.581679326E0,7.676400244E-2,8.769799769E-2,-2.487960011E-1,2.747418807E-1
1.586689991E0,4.335900024E-2,8.788900077E-2,-2.384960055E-1,2.578465125E-1
1.591700759E0,4.278999940E-2,1.167590022E-1,-1.971420050E-1,2.330850033E-1
1.596711547E0,1.359700039E-2,1.317359954E-1,-1.152039990E-1,1.755312288E-1
1.601722316E0,7.639999967E-4,1.492169946E-1,-3.093400039E-2,1.523916256E-1
1.606733061E0,-3.290999914E-3,1.457999945E-1,6.747400016E-2,1.606897936E-1
1.611743831E0,-3.321999917E-3,1.262869984E-1,1.297709942E-1,1.811075718E-1
1.616754600E0,5.284999963E-3,6.990999728E-2,1.677290052E-1,1.817920739E-1
1.621765355E0,1.310999971E-2,-3.934000153E-3,1.813060045E-1,1.818219341E-1
1.626776124E0,-2.749999985E-3,-7.841999829E-2,1.634040028E-1,1.812681074E-1
1.631786665E0,-3.217199817E-2,-1.230200008E-1,1.836020052E-1,2.233352959E-1
1.636797432E0,-7.005400211E-2,-1.314499974E-1,2.110220045E-1,2.582962474E-1
1.641808191E0,-8.344499767E-2,-1.162429973E-1,2.505289912E-1,2.885139122E-1
1.646818961E0,-7.771400362E-2,-1.202030033E-1,2.661139965E-1,3.021669861E-1
1.651829730E0,-3.002100065E-2,-1.174630001E-1,2.410240024E-1,2.697987891E-1
1.656840509E0,3.294499964E-2,-1.223599985E-1,1.824039966E-1,2.221003382E-1
1.661851203E0,7.366400212E-2,-1.299220026E-1,1.261730045E-1,1.955140379E-1
1.666861971E0,6.257899851E-2,-1.143219993E-1,8.454799652E-2,1.553512610E-1
1.671872802E0,2.195600048E-2,-1.016360000E-1,6.711400300E-2,1.237587647E-1
1.676883573E0,-3.353400156E-2,-7.302100211E-2,7.636000216E-2,1.108487525E-1
1.681894261E0,-5.924100056E-2,-3.615399823E-2,8.599600196E-2,1.105075567E-1
1.686905029E0,-5.114600062E-2,8.515999652E-3,5.297899991E-2,7.412968408E-2
1.691915798E0,-3.354300186E-2,3.739700094E-2,1.070200000E-2,5.136342528E-2
1.696926576E0,2.685999963E-3,5.079200119E-2,-6.248100102E-2,8.056623033E-2
1.701937345E0,3.342200071E-2,3.721499816E-2,-1.738719940E-1,1.809238970E-1
1.706948115E0,7.018399984E-2,1.151399966E-2,-2.829389870E-1,2.917410434E-1
1.711958889E0,1.031029969E-1,-4.177400097E-2,-3.541049957E-1,3.711679446E-1
1.716969658E0,1.206019968E-1,-4.951100051E-2,-3.942829967E-1,4.152773317E-1
1.721980427E0,9.763900191E-2,-7.752999663E-2,-3.772880137E-1,3.973544014E-1
1.726990968E0,4.703899845E-2,-9.969799966E-2,-3.628239930E-1,3.792012769E-1
1.732001735E0,8.751000278E-3,-1.185040027E-1,-3.150410056E-1,3.367055299E-1
1.737012514E0,-3.192000091E-2,-9.441699833E-2,-2.313240021E-1,2.518814205E-1
1.742023284E0,-5.409099907E-2,-8.654700220E-2,-1.214630008E-1,1.586489216E-1
1.747034043E0,-4.194499925E-2,-8.769900352E-2,-2.862299979E-2,1.013398949E-1
1.752044812E0,-4.252799973E-2,-7.668799907E-2,8.563800156E-2,1.225705808E-1
1.757055491E0,-2.742600068E-2,-6.074900180E-2,2.189130038E-1,2.288351589E-1
1.762066336E0,-3.334000008E-3,-3.784500062E-2,3.450050056E-1,3.470904976E-1
1.767077107E0,5.068700016E-2,-3.911000211E-3,4.065909982E-1,4.097568885E-1
1.772087887E0,1.087149978E-1,1.731099933E-2,4.347740114E-1,4.484942167E-1
1.777098656E0,1.591150016E-1,4.692399874E-2,4.153259993E-1,4.472305122E-1
1.782109425E0,1.885239929E-1,5.415200070E-2,3.434770107E-1,3.955378515E-1
1.787120128E0,1.743460000E-1,3.530199826E-2,2.573890090E-1,3.128767501E-1
1.792130895E0,1.200959980E-1,1.683899947E-2,1.834460050E-1,2.199068835E-1
1.797141664E0,4.551700130E-2,-1.315000001E-3,6.189899892E-2,7.684408044E-2
1.802152419E0,-3.986399993E-2,-3.534299880E-2,-4.995299876E-2,7.303128193E-2
1.807163188E0,-1.220789999E-1,-6.829100102E-2,-1.497920007E-1,2.049502049E-1
1.812173972E0,-1.643449962E-1,-1.139969975E-1,-2.235060036E-1,2.999325372E-1
1.817184512E0,-1.705510020E-1,-1.254640073E-1,-2.566770017E-1,3.327340449E-1
1.822195294E0,-1.698729992E-1,-1.154059991E-1,-2.755050063E-1,3.436253614E-1
1.827206063E0,-1.441639960E-1,-8.674500138E-2,-2.536430061E-1,3.043726787E-1
1.832216803E0,-1.153979972E-1,-6.322100013E-2,-2.175009996E-1,2.542051877E-1
1.837227572E0,-8.164100349E-2,-4.022800177E-2,-1.862329990E-1,2.072830805E-1
1.842238337E0,-4.769999906E-2,-5.022799969E-2,-1.313589960E-1,1.485036286E-1
1.847249106E0,-2.750900015E-2,-7.597400248E-2,-5.294900015E-2,9.660429990E-2
1.852259875E0,-2.478699945E-2,-1.034429967E-1,1.315000001E-3,1.063794066E-1
1.857270649E0,-3.900000080E-2,-1.187279969E-1,4.594299942E-2,1.331468983E-1
1.862281419E0,-5.301000178E-2,-9.464500099E-2,5.020200089E-2,1.195323278E-1
1.867292189E0,-3.661900014E-2,-7.895000279E-2,3.312300146E-2,9.311921035E-2
1.872302892E0,-9.344000369E-3,-6.687600166E-2,-1.250599977E-2,6.867393953E-2
1.877313736E0,2.600800060E-2,-5.332500115E-2,-3.175399825E-2,6.729255715E-2
1.882324512E0,6.206199899E-2,-3.245000029E-3,-2.445499972E-2,6.678524354E-2
1.887335204E0,1.012390032E-1,5.021899939E-2,2.128599957E-2,1.149972932E-1
1.892345971E0,1.228659973E-1,1.071759984E-1,9.356400371E-2,1.879813041E-1
1.897356731E0,1.418370008E-1,1.557410061E-1,1.373800039E-1,2.514880937E-1
1.902367501E0,1.679770052E-1,1.913670003E-1,1.574939936E-1,2.994026739E-1
1.907378347E0,1.893599927E-1,1.841239929E-1,1.584330052E-1,3.079932934E-1
1.912389036E0,1.946959943E-1,1.586560011E-1,1.592430025E-1,2.973829025E-1
1.917399803E0,1.961099952E-1,1.407690048E-1,1.074040011E-1,2.642170744E-1
1.922410353E0,1.729280055E-1,1.165560037E-1,8.425199986E-2,2.249173105E-1
1.927421120E0,1.420740038E-1,8.380500227E-2,2.514700033E-2,1.668552444E-1
1.932431889E0,1.059060022E-1,6.140999869E-2,-3.396499902E-2,1.270468040E-1
1.937442659E0,6.656099856E-2,3.755199909E-2,-6.921199709E-2,1.031058665E-1
1.942453428E0,1.002399996E-2,2.870400064E-2,-9.964500368E-2,1.041802620E-1
1.947464212E0,-2.638000064E-2,1.092800032E-2,-1.301320046E-1,1.332278659E-1
1.952474981E0,-5.054000020E-2,-1.297700033E-2,-1.273300052E-1,1.376067744E-1
1.957485751E0,-7.922500372E-2,-4.740900174E-2,-1.128619984E-1,1.458151067E-1
1.962496539E0,-9.842199832E-2,-8.045399934E-2,-9.632100165E-2,1.594912885E-1
1.967507232E0,-1.085499972E-1,-1.052249968E-1,-4.656900093E-2,1.581899924E-1
1.972518071E0,-1.306969970E-1,-1.033399999E-1,1.985500008E-2,1.677947605E-1
1.977528766E0,-1.248119995E-1,-1.084240004E-1,8.617299795E-2,1.864392251E-1
1.982539533E0,-1.125959978E-1,-1.043659970E-1,1.429370046E-1,2.097644091E-1
1.987550321E0,-8.475600183E-2,-8.253400028E-2,1.520490050E-1,1.926508266E-1
1.992561090E0,-3.931599855E-2,-4.115499929E-2,1.518889964E-1,1.622028018E-1
1.997571875E0,9.305999614E-3,-2.285400033E-2,1.136379987E-1,1.162862920E-1
2.002582415E0,4.717500135E-2,1.045500021E-2,9.959600121E-2,1.106984699E-1
2.007593191E0,8.842899650E-2,6.793999672E-2,7.394500077E-2,1.338035639E-1
2.012603961E0,1.331389993E-1,1.165039986E-1,6.770999730E-2,1.894302473E-1
2.017614730E0,1.629289985E-1,1.333850026E-1,4.241999984E-2,2.147949577E-1
2.022625494E0,1.598020047E-1,1.404339969E-1,1.007100008E-2,2.129784337E-1
2.027636263E0,1.390970051E-1,1.218890026E-1,-3.186399862E-2,1.876705097E-1
2.032647292E0,1.175580025E-1,8.550100029E-2,-8.351899683E-2,1.676476299E-1
2.037657833E0,8.324000239E-2,2.487299964E-2,-1.355050057E-1,1.609632588E-1
2.042668600E0,5.480200052E-2,-1.002100017E-2,-1.327680051E-1,1.439827173E-1
2.047679369E0,3.186799958E-2,-3.385499865E-2,-1.159500033E-1,1.249245116E-1
2.052690064E0,-1.935999957E-3,-3.063699976E-2,-7.526899874E-2,8.128835108E-2
2.057700908E0,-1.843000017E-2,-3.162100166E-2,-3.706400096E-2,5.208927740E-2
2.062711679E0,-2.281299978E-2,-2.511299960E-2,1.304899994E-2,3.635068236E-2
2.067722438E0,-2.235200070E-2,4.850999918E-3,8.481200039E-2,8.784201470E-2
2.072733207E0,-1.491899975E-2,3.891300038E-2,1.591069996E-1,1.644744220E-1
2.077743977E0,-1.463999972E-2,4.418199882E-2,2.238519937E-1,2.286396590E-1
2.082754718E0,2.069200017E-2,3.954099864E-2,2.527030110E-1,2.566134471E-1
2.087765487E0,2.264500037E-2,1.360199973E-2,2.743330002E-1,2.756018966E-1
2.092776194E0,2.254500054E-2,-1.228000037E-2,2.576969862E-1,2.589726089E-1
2.097786961E0,2.073300071E-2,-1.483699959E-2,2.340819985E-1,2.354662946E-1
2.102797730E0,1.268300042E-2,-2.048699930E-2,1.891800016E-1,1.907082815E-1
2.107808494E0,-8.232999593E-3,-3.129899874E-2,1.325439960E-1,1.364379730E-1
2.112819263E0,-2.570500039E-2,-4.736499861E-2,4.022299871E-2,6.724641078E-2
2.117830033E0,-7.492099702E-2,-7.539899647E-2,-4.474399984E-2,1.153264496E-1
2.122840573E0,-1.090689972E-1,-9.587199986E-2,-7.229399681E-2,1.622156234E-1
2.127851340E0,-1.378280073E-1,-9.039100260E-2,-8.294100314E-2,1.845164030E-1
2.132862110E0,-1.194199994E-1,-4.820400104E-2,-9.806799889E-2,1.618706100E-1
2.137872870E0,-1.042779982E-1,-4.906999879E-3,-8.187100291E-2,1.326681600E-1
2.142883639E0,-9.431300312E-2,3.018799983E-2,-5.828699842E-2,1.149070584E-1
2.147894408E0,-8.007399738E-2,7.369799912E-2,-2.251400054E-2,1.111310953E-1
2.152905168E0,-6.877800077E-2,1.020469964E-1,6.219999865E-3,1.232180638E-1
2.157915937E0,-4.873999953E-2,8.782400191E-2,3.476599976E-2,1.062888405E-1
2.162926706E0,-1.368299965E-2,7.653400302E-2,9.172900021E-2,1.202451146E-1
2.167937456E0,1.985399984E-2,5.628100038E-2,1.388279945E-1,1.511123567E-1
2.172948226E0,4.534099996E-2,3.456399962E-2,1.999790072E-1,2.079473003E-1
2.177958991E0,5.382400006E-2,4.449999891E-3,2.704010010E-1,2.757417756E-1
2.182969684E0,4.827500135E-2,-2.240899950E-2,3.262990117E-1,3.306110767E-1
2.187980432E0,4.538400099E-2,-3.187099844E-2,3.988229930E-1,4.026602139E-1
2.192991202E0,3.352899849E-2,-2.702300064E-2,4.666369855E-1,4.686197953E-1
2.198001966E0,1.540799998E-2,-1.306600031E-2,5.083339810E-1,5.087352584E-1
2.203012735E0,2.626699954E-2,2.815000014E-3,5.525659919E-1,5.531971212E-1
2.208023504E0,2.156499960E-2,8.782000281E-3,5.802580118E-1,5.807250064E-1
2.213034035E0,4.170399904E-2,-2.304000081E-3,5.387279987E-1,5.403446942E-1
2.218045033E0,4.664300010E-2,-2.543099970E-2,4.614950120E-1,4.645427336E-1
2.223055573E0,2.504399978E-2,-4.416200146E-2,3.822039962E-1,3.855611223E-1
2.228066341E0,-1.476999954E-3,-4.913699999E-2,3.224590123E-1,3.261846730E-1
2.233077110E0,-9.588999674E-3,-2.947000042E-2,2.178550065E-1,2.200482531E-1
2.238087874E0,-1.384599973E-2,4.836000036E-3,1.043770015E-1,1.054023579E-1
2.243098643E0,-3.318199888E-2,5.594100058E-2,6.049999967E-3,6.532260784E-2
2.248109418E0,-4.391599819E-2,9.301900119E-2,-1.130999997E-1,1.528815208E-1
2.253120187E0,-5.378599837E-2,1.165269986E-1,-2.197329998E-1,2.544682028E-1
2.258130956E0,-4.484599829E-2,1.389569938E-1,-2.901810110E-1,3.248464696E-1
2.263141725E0,-3.422300145E-2,1.329540014E-1,-3.104679883E-1,3.394677482E-1
2.268152420E0,-2.672700025E-2,1.437730044E-1,-3.020859957E-1,3.356202588E-1
2.273163269E0,-1.303500030E-2,1.549679935E-1,-2.555789948E-1,2.991748866E-1
2.278173963E0,3.694299981E-2,2.085729986E-1,-1.803860068E-1,2.782204027E-1
2.283184754E0,8.296500146E-2,2.334399968E-1,-1.292659938E-1,2.794407285E-1
2.288195524E0,1.232889965E-1,2.394350022E-1,-1.213620007E-1,2.953947057E-1
2.293206293E0,1.257790029E-1,1.852020025E-1,-1.378020048E-1,2.628869184E-1
2.298217047E0,9.881699830E-2,1.049610004E-1,-1.810140014E-1,2.314037153E-1
2.303227816E0,5.027300119E-2,8.724000305E-3,-2.510240078E-1,2.561572473E-1
2.308238586E0,-1.711300015E-2,-1.076230034E-1,-3.288129866E-1,3.464008456E-1
2.313249131E0,-9.622400254E-2,-2.198130041E-1,-3.809700012E-1,4.502387781E-1
2.318259898E0,-2.010069937E-1,-3.208760023E-1,-4.169319868E-1,5.632028959E-1
2.323270668E0,-3.193739951E-1,-3.620969951E-1,-4.099310040E-1,6.333698846E-1
2.328281437E0,-4.142200053E-1,-3.661560118E-1,-3.669869900E-1,6.635720674E-1
2.333292196E0,-4.772180021E-1,-3.203249872E-1,-3.069869876E-1,6.516027390E-1
2.338302965E0,-4.931969941E-1,-2.705320120E-1,-2.491900027E-1,6.152450747E-1
2.343313735E0,-4.567970037E-1,-2.357230037E-1,-1.963369995E-1,5.502518101E-1
2.348324495E0,-3.719759881E-1,-2.018959969E-1,-1.510040015E-1,4.493665962E-1
2.353335264E0,-2.680760026E-1,-1.600120068E-1,-1.251489967E-1,3.363493078E-1
2.358345958E0,-1.525570005E-1,-1.033829972E-1,-7.804600149E-2,2.001321085E-1
2.363356802E0,-3.269200027E-2,-3.686200082E-2,-7.317000069E-3,4.981076667E-2
2.368367497E0,4.554300010E-2,2.282699943E-2,3.228700161E-2,6.031324261E-2
2.373378264E0,1.115840003E-1,6.641700119E-2,5.037900060E-2,1.392847833E-1
2.378389033E0,1.541810036E-1,9.912899882E-2,5.653300136E-2,1.918184572E-1
2.383399817E0,1.906549931E-1,1.351650059E-1,2.935300022E-2,2.355429978E-1
2.388410586E0,2.283059955E-1,1.581220031E-1,-1.687300019E-2,2.782281322E-1
2.393421355E0,2.301899940E-1,1.499550045E-1,-6.785299629E-2,2.829805043E-1
2.398432114E0,2.250639945E-1,1.377220005E-1,-7.830599695E-2,2.752325929E-1
2.403442883E0,2.223860025E-1,1.076169983E-1,-8.190199733E-2,2.602784847E-1
2.408453653E0,2.130140066E-1,8.342000097E-2,-9.527999908E-2,2.478147328E-1
2.413464418E0,2.018900067E-1,5.336499959E-2,-9.933099896E-2,2.312445574E-1
2.418474957E0,1.568879932E-1,2.914799936E-2,-1.344379932E-1,2.086552714E-1
2.423485931E0,9.321600199E-2,5.756000057E-3,-2.051890045E-1,2.254437450E-1
2.428496472E0,4.393599927E-2,-2.867799997E-2,-3.236440122E-1,3.278692519E-1
2.433507239E0,1.041000010E-3,-6.904900074E-2,-4.254130125E-1,4.309815302E-1
2.438518008E0,-1.533600036E-2,-1.219580024E-1,-4.965170026E-1,5.115057000E-1
2.443528778E0,-2.487399988E-2,-1.426720023E-1,-5.416380167E-1,5.606654593E-1
2.448539547E0,-4.655300081E-2,-1.598979980E-1,-5.583570004E-1,5.826637894E-1
2.453550321E0,-5.723499879E-2,-1.598040015E-1,-5.562390089E-1,5.815625495E-1
2.458561015E0,-5.042799935E-2,-1.453540027E-1,-5.400339961E-1,5.615224717E-1
2.463571783E0,-4.578400031E-2,-1.005939990E-1,-4.833000004E-1,4.957763788E-1
2.468582629E0,-2.926900052E-2,-5.457799882E-2,-4.242910147E-1,4.287870071E-1
2.473593400E0,-8.411999792E-3,8.972000331E-3,-3.485859931E-1,3.488028857E-1
2.478604083E0,7.145999931E-3,6.182000041E-2,-2.371750027E-1,2.452035066E-1
2.483614851E0,3.626700118E-2,1.134189963E-1,-1.116070002E-1,1.632032065E-1
2.488625620E0,6.260100007E-2,1.268150061E-1,3.262899816E-2,1.451398722E-1
2.493636398E0,1.103729978E-1,1.074760035E-1,1.690959930E-1,2.287503985E-1
2.498647167E0,1.473059952E-1,1.001039967E-1,2.407709956E-1,2.994837871E-1
2.503657937E0,1.670929939E-1,6.482099742E-2,2.954489887E-1,3.455603207E-1
2.508668701E0,1.913090050E-1,5.564400181E-2,3.238329887E-1,3.802146695E-1
2.513679470E0,2.132270038E-1,2.323099971E-2,3.472929895E-1,4.081885043E-1
2.518690011E0,2.191359997E-1,-1.328700036E-2,3.348270059E-1,4.003826352E-1
2.523700985E0,2.399889976E-1,-3.294900060E-2,3.056989908E-1,3.900413165E-1
2.528711525E0,2.292580009E-1,-3.612399846E-2,2.434549928E-1,3.363547350E-1
2.533722283E0,1.902839988E-1,-2.081700042E-2,1.698700041E-1,2.559241411E-1
2.538733053E0,1.402540058E-1,-1.423000009E-3,6.825699657E-2,1.559879119E-1
2.543743822E0,8.855199814E-2,-1.332000014E-3,-4.959199950E-2,1.015017094E-1
2.548754600E0,5.789899826E-2,1.188999973E-3,-1.408469975E-1,1.522878341E-1
2.553765369E0,2.425399981E-2,1.317999978E-2,-2.270199955E-1,2.286920358E-1
2.558776159E0,-3.365000011E-3,1.834999956E-2,-2.867799997E-1,2.873861757E-1
2.563786928E0,-6.920999847E-3,2.635099925E-2,-3.298819959E-1,3.310051459E-1
2.568797697E0,-1.524300035E-2,2.793399990E-2,-3.444670141E-1,3.459337815E-1
2.573808391E0,-2.628399990E-2,1.885600016E-2,-3.307229877E-1,3.323012067E-1
2.578819159E0,-2.609200031E-2,-1.924099959E-2,-2.817380130E-1,2.835971025E-1
2.583829923E0,-3.596099839E-2,-7.406199723E-2,-2.358440012E-1,2.498014526E-1
2.588840692E0,-3.485000134E-2,-1.079500020E-1,-1.690160036E-1,2.035537644E-1
2.593851475E0,-3.478699923E-2,-1.287389994E-1,-6.673300266E-2,1.491212893E-1
2.598862245E0,-3.559700027E-2,-1.021249965E-1,2.836900018E-2,1.118099347E-1
2.603873014E0,-1.638399996E-2,-7.620800287E-2,1.497620046E-1,1.688335073E-1
2.608883788E0,8.496999741E-3,-2.806999907E-2,2.570190132E-1,2.586868705E-1
2.613894557E0,5.056999996E-2,4.131000023E-3,3.404709995E-1,3.442308695E-1
2.618905336E0,8.408600092E-2,3.670100123E-2,3.716009855E-1,3.827593389E-1
2.623915876E0,1.071389988E-1,5.319200084E-2,3.671559989E-1,3.861498175E-1
2.628926633E0,1.152750030E-1,4.268699884E-2,3.915280104E-1,4.103714038E-1
2.633937403E0,1.138459966E-1,1.539099962E-2,4.111379981E-1,4.268866914E-1
2.638948172E0,7.065699995E-2,-2.140700072E-2,3.926430047E-1,3.995237170E-1
2.643958941E0,2.154999971E-2,-4.352800176E-2,4.340769947E-1,4.367859049E-1
2.648969701E0,-2.840300091E-2,-7.910499722E-2,4.970430136E-1,5.040992843E-1
2.653980470E0,-4.117900133E-2,-1.233770028E-1,5.121160150E-1,5.283752528E-1
2.658991240E0,-3.134299815E-2,-1.621180028E-1,5.008339882E-1,5.273512246E-1
2.664002010E0,-1.068999991E-2,-1.632039994E-1,4.396350086E-1,4.690722357E-1
2.669012780E0,4.416999873E-3,-1.625909954E-1,3.405489922E-1,3.773976123E-1
2.674023558E0,2.565000020E-2,-1.393170059E-1,2.323929965E-1,2.721647580E-1
2.679034251E0,2.479000017E-2,-1.036780030E-1,6.755699962E-2,1.262046774E-1
2.684045004E0,1.115899999E-2,-4.874400049E-2,-6.299900264E-2,8.043242628E-2
2.689055773E0,-1.530699991E-2,-5.322999787E-3,-1.952529997E-1,1.959244049E-1
2.694066542E0,-3.857199848E-2,3.416499868E-2,-2.839280069E-1,2.885656932E-1
2.699077312E0,-6.346800178E-2,5.816499889E-2,-3.889569938E-1,3.983703018E-1
2.704088081E0,-6.245699897E-2,7.638700306E-2,-4.842109978E-1,4.941620598E-1
2.709098850E0,-5.295899883E-2,9.394600242E-2,-5.531169772E-1,5.635325167E-1
2.714109638E0,-2.877799980E-2,1.252540052E-1,-5.766839981E-1,5.908309172E-1
2.719120179E0,2.562999958E-3,1.493020058E-1,-5.742390156E-1,5.933364180E-1
2.724130946E0,3.158500046E-2,1.665119976E-1,-5.506619811E-1,5.761531698E-1
2.729141715E0,3.751400113E-2,1.589329988E-1,-4.941900074E-1,5.204716725E-1
2.734152485E0,1.435399987E-2,1.206339970E-1,-4.265150130E-1,4.434790354E-1
2.739163259E0,-2.064999891E-3,7.351300120E-2,-3.333890140E-1,3.414039546E-1
2.744174028E0,-3.023900092E-2,1.636000001E-3,-2.340739965E-1,2.360248070E-1
2.749184782E0,-3.707300127E-2,-7.130099833E-2,-1.405300051E-1,1.618855216E-1
2.754195552E0,-3.925700113E-2,-1.315679997E-1,-4.539899901E-2,1.446109256E-1
2.759206246E0,-5.759700015E-2,-1.378470063E-1,7.340999693E-2,1.664579203E-1
2.764217090E0,-6.601300091E-2,-1.289419979E-1,2.040369958E-1,2.502295961E-1
2.769227861E0,-5.727300048E-2,-1.151920035E-1,2.844699919E-1,3.122059746E-1
2.774238535E0,-3.183399886E-2,-1.065540016E-1,3.243159950E-1,3.428527721E-1
2.779249302E0,6.309999735E-4,-1.149379984E-1,3.331150115E-1,3.523872195E-1
2.784260057E0,2.126999944E-2,-1.167960018E-1,3.205739856E-1,3.418499658E-1
2.789270826E0,2.130400017E-2,-9.642899781E-2,2.679150105E-1,2.855361008E-1
2.794281596E0,-5.688000005E-3,-8.474799991E-2,2.039020061E-1,2.208859546E-1
2.799292379E0,-4.509299994E-2,-7.925499976E-2,1.213589981E-1,1.517983533E-1
2.804303148E0,-5.517899990E-2,-7.040700316E-2,3.686299920E-2,9.675096297E-2
2.809313936E0,-4.396200180E-2,-5.855499953E-2,-6.876099855E-2,1.004461074E-1
2.814324706E0,-1.711099967E-2,-5.739299953E-2,-1.359760016E-1,1.485806708E-1
2.819335476E0,1.546899974E-2,-6.403400004E-2,-1.912699938E-1,2.022964499E-1
2.824346015E0,5.335399881E-2,-4.788200185E-2,-2.082539946E-1,2.202477277E-1
2.829356783E0,7.318899781E-2,-3.015200049E-2,-2.108539939E-1,2.252225106E-1
2.834367552E0,6.161699817E-2,-2.237099968E-2,-2.086140066E-1,2.186708025E-1
2.839378326E0,5.168899894E-2,2.504899912E-2,-1.440010071E-1,1.550338512E-1
2.844389095E0,4.360799864E-2,5.540499836E-2,-6.023500115E-2,9.273417251E-2
2.849399870E0,1.913299970E-2,9.952700138E-2,2.851199917E-2,1.052835684E-1
2.854410639E0,1.618699916E-2,1.337080002E-1,1.149640009E-1,1.770778635E-1
2.859421417E0,2.071899921E-2,1.252000034E-1,1.200039983E-1,1.746576004E-1
2.864432186E0,9.387000464E-3,9.126999974E-2,6.511999667E-2,1.125119665E-1
2.869442952E0,-2.241900004E-2,4.484700039E-2,6.973800063E-2,8.589094096E-2
2.874453722E0,-6.733900309E-2,2.161099948E-2,1.052170023E-1,1.267761579E-1
2.879464492E0,-1.014600024E-1,2.061400004E-2,1.191470027E-1,1.578451055E-1
2.884475280E0,-1.298560053E-1,1.818699948E-2,1.616760045E-1,2.081645491E-1
2.889485973E0,-1.408859938E-1,1.419799961E-2,1.921160072E-1,2.386608612E-1
2.894496745E0,-1.422089934E-1,-7.794999983E-3,2.222950011E-1,2.640061124E-1
2.899507514E0,-1.411280036E-1,-3.590599820E-2,2.450360060E-1,2.850420992E-1
2.904518283E0,-1.007430032E-1,-5.835799873E-2,2.889220119E-1,3.114975724E-1
2.909529057E0,-6.384100020E-2,-3.137899935E-2,3.424420059E-1,3.497525444E-1
2.914539826E0,-1.364499982E-2,6.233999971E-3,3.722220063E-1,3.725241882E-1
2.919550390E0,3.324100003E-2,5.603599921E-2,3.737010062E-1,3.793381596E-1
2.924561158E0,6.780699641E-2,8.026400208E-2,3.396419883E-1,3.555232468E-1
2.929571927E0,8.567199856E-2,8.640500158E-2,2.891680002E-1,3.137254341E-1
2.934582696E0,6.875699759E-2,7.051599771E-2,2.389609963E-1,2.584615801E-1
2.939593465E0,4.582300037E-2,5.636100098E-2,1.555639952E-1,1.716871178E-1
2.944604249E0,1.245000027E-2,4.619500041E-2,7.016800344E-2,8.492661112E-2
2.949615019E0,-5.437999964E-3,5.386799946E-2,-4.108300060E-2,6.796430054E-2
2.954625808E0,3.211000003E-3,6.948900223E-2,-1.566890031E-1,1.714365062E-1
2.959636577E0,-6.833000109E-3,6.299400330E-2,-2.673049867E-1,2.747123773E-1
2.964647346E0,-2.772999927E-3,6.087600067E-2,-3.658820093E-1,3.709221235E-1
2.969658145E0,-1.342399977E-2,6.353600323E-2,-4.022819996E-1,4.074896743E-1
2.974668839E0,-3.156999871E-2,7.369899750E-2,-3.765839934E-1,3.850242994E-1
2.979679683E0,-2.688100003E-2,1.028489992E-1,-3.198750019E-1,3.370764329E-1
2.984690386E0,-2.074999921E-2,1.296530068E-1,-2.417609990E-1,2.751160578E-1
2.989701154E0,-6.188999861E-3,1.192210019E-1,-1.616619974E-1,2.009640575E-1
2.994711923E0,2.374099940E-2,9.807199985E-2,-8.683799952E-2,1.331262197E-1
2.999722688E0,3.853899986E-2,7.787100226E-2,-3.867200017E-2,9.510347575E-2
3.004733457E0,4.346099868E-2,7.942900062E-2,1.179399993E-2,9.130675210E-2
3.009743998E0,6.929100305E-2,9.043599665E-2,6.221399829E-2,1.298094533E-1
3.014754991E0,7.598999888E-2,1.012569964E-1,8.397299796E-2,1.519174896E-1
3.019765762E0,6.685499847E-2,1.045589969E-1,4.372400045E-2,1.315825325E-1
3.024776526E0,2.581200004E-2,9.395600110E-2,3.706400096E-2,1.042484036E-1
3.029787296E0,-6.922999863E-3,9.785900265E-2,4.487000033E-2,1.078778441E-1
3.034798065E0,-4.104499891E-2,6.492199749E-2,6.918700039E-2,1.033750391E-1
3.039808598E0,-8.577799797E-2,3.819100186E-2,1.076700017E-1,1.428609353E-1
3.044819366E0,-1.079910025E-1,3.269999987E-3,1.315689981E-1,1.702443855E-1
3.049830135E0,-1.173100024E-1,-2.581400052E-2,1.098529994E-1,1.627749391E-1
3.054840909E0,-1.143779978E-1,-6.049099937E-2,1.332380027E-1,1.857252076E-1
3.059851678E0,-9.710299969E-2,-1.078540012E-1,1.298779994E-1,1.947556748E-1
3.064862448E0,-9.865699708E-2,-1.537040025E-1,1.070329994E-1,2.116936145E-1
3.069873222E0,-1.071240008E-1,-1.838209927E-1,1.341360062E-1,2.515117832E-1
3.074883991E0,-1.174700037E-1,-1.705529988E-1,1.851630062E-1,2.778000468E-1
3.079894685E0,-1.316249967E-1,-1.573469937E-1,2.339490056E-1,3.111516566E-1
3.084905530E0,-1.330720037E-1,-1.237189993E-1,2.400480062E-1,3.010607816E-1
3.089916224E0,-1.014870033E-1,-8.700499684E-2,2.010490000E-1,2.414335969E-1
3.094926991E0,-5.456300080E-2,-6.391199678E-2,1.383579969E-1,1.618789662E-1
3.099937760E0,-2.182000084E-3,-4.948300123E-2,7.341600209E-2,8.856205677E-2
3.104948544E0,3.664899990E-2,-4.810500145E-2,2.528800070E-2,6.554939617E-2
3.109959390E0,5.525099859E-2,-2.894300036E-2,-1.108999946E-3,6.238268987E-2
3.114970084E0,1.016599964E-2,-1.786199957E-2,-5.625000224E-3,2.130819572E-2
3.119980837E0,-4.125199839E-2,-5.257999990E-3,9.325999767E-3,4.261863685E-2
3.124991607E0,-8.024500310E-2,1.348400023E-2,2.938400023E-2,8.651299472E-2
3.130002371E0,-7.694599777E-2,3.131699935E-2,6.871099770E-2,1.078083588E-1
3.135013140E0,-4.609899968E-2,4.091599956E-2,5.789599940E-2,8.456467075E-2
3.140023686E0,2.815899998E-2,5.432299897E-2,4.466800019E-2,7.575716295E-2
3.145034453E0,1.006399989E-1,4.798899963E-2,-2.128599957E-2,1.135096791E-1
3.150045453E0,1.762080044E-1,4.136899859E-2,-8.738099784E-2,2.009877947E-1
3.155055993E0,2.129369974E-1,4.388299957E-2,-1.749649942E-1,2.790710155E-1
3.160066990E0,2.211309969E-1,6.288799644E-2,-2.169879973E-1,3.161291016E-1
3.165077531E0,1.783729941E-1,8.183000237E-2,-2.635520101E-1,3.285920515E-1
3.170088294E0,1.555889994E-1,8.718500286E-2,-2.743040025E-1,3.271877859E-1
3.175099063E0,1.380580068E-1,6.769900024E-2,-2.638320029E-1,3.053694379E-1
3.180109758E0,1.070040017E-1,5.221199989E-2,-2.297309935E-1,2.587513840E-1
3.185120515E0,7.901900262E-2,5.491999909E-3,-1.961220056E-1,2.115136069E-1
3.190131284E0,6.117999926E-2,-1.609699987E-2,-1.794960052E-1,1.903179487E-1
3.195142053E0,5.054999888E-2,-2.986099944E-2,-1.797820032E-1,1.891257527E-1
3.200152808E0,3.736099973E-2,-2.880400047E-2,-1.323489994E-1,1.405054176E-1
3.205163577E0,2.150399983E-2,-1.338800043E-2,-7.298800349E-2,7.725871613E-2
3.210174342E0,1.003399957E-2,-2.717999974E-3,7.849000394E-3,1.302595403E-2
3.215185111E0,5.623000208E-3,1.691799983E-2,3.618299961E-2,4.033666211E-2
3.220195881E0,3.581000026E-3,3.823599964E-2,7.187400013E-2,8.149041125E-2
3.225206651E0,2.731000073E-2,4.465299845E-2,6.456200033E-2,8.311424846E-2
3.230217421E0,2.970599942E-2,4.355699942E-2,4.539800063E-2,6.957468692E-2
3.235227973E0,5.551100150E-2,1.681599952E-2,4.035399854E-2,7.065900032E-2
3.240238741E0,5.543600023E-2,2.368000103E-3,3.288999945E-2,6.450201245E-2
3.245249510E0,7.222700119E-2,-1.440000051E-4,1.519000041E-3,7.224311592E-2
3.250260279E0,7.761999965E-2,-2.713999944E-3,-5.608899891E-2,9.580295371E-2
3.255271043E0,7.199899852E-2,-2.971000038E-3,-1.183430031E-1,1.385559418E-1
3.260281813E0,4.144800082E-2,8.534000255E-3,-1.755850017E-1,1.806124546E-1
3.265292592E0,1.664900035E-2,3.784999950E-3,-1.945479959E-1,1.952957710E-1
3.270303361E0,-7.586999796E-3,2.032000106E-3,-1.944510043E-1,1.946095698E-1
3.275314130E0,-2.236199938E-2,5.561000202E-3,-1.466359943E-1,1.484355031E-1
3.280324880E0,-1.174599957E-2,-4.417100176E-2,-1.161400005E-1,1.248100382E-1
3.285335650E0,1.163200010E-2,-8.538900316E-2,-6.703899801E-2,1.091824736E-1
3.290346420E0,3.580600023E-2,-9.520000219E-2,-8.642000146E-3,1.020773934E-1
3.295357170E0,3.769199923E-2,-1.048299968E-1,4.722600058E-2,1.209971494E-1
3.300367863E0,2.012600005E-2,-8.652599901E-2,1.056490019E-1,1.380344739E-1
3.305378630E0,-4.786000121E-3,-7.367999852E-2,1.833689958E-1,1.976760901E-1
3.310389399E0,-3.655499965E-2,-6.156599894E-2,2.589229941E-1,2.686405724E-1
3.315400168E0,-6.541199982E-2,-4.568000138E-2,3.180460036E-1,3.279003700E-1
3.320410933E0,-5.618700013E-2,-4.046799988E-2,3.319579959E-1,3.391028591E-1
3.325421702E0,-4.693700001E-2,-4.569499940E-2,3.078069985E-1,3.147002753E-1
3.330432471E0,-1.886999980E-2,-1.705699973E-2,2.482340038E-1,2.495338429E-1
3.335443240E0,-4.995999858E-3,2.779999981E-3,1.651639938E-1,1.652629217E-1
3.340454010E0,2.287399955E-2,1.650499925E-2,6.803199649E-2,7.364772503E-2
3.345464766E0,3.401700035E-2,2.002600022E-2,-2.180000010E-4,3.947460603E-2
3.350475536E0,-6.238999777E-3,2.369800024E-2,3.436000086E-3,2.474523045E-2
3.355486075E0,-7.656000089E-3,4.561199993E-2,-6.678699702E-2,8.123774890E-2
3.360497057E0,4.927999806E-3,7.178500295E-2,-1.249509975E-1,1.441878067E-1
3.365507597E0,1.906999946E-2,8.867099881E-2,-1.210649982E-1,1.512710967E-1
3.370518364E0,1.143699978E-2,7.853499800E-2,-4.585099965E-2,9.165623298E-2
3.375529134E0,-7.379999734E-4,6.790599972E-2,6.479699910E-2,9.386384040E-2
3.380539913E0,-1.196399983E-2,5.381099880E-2,1.345430017E-1,1.453980061E-1
3.385550682E0,-2.903899923E-2,2.179300040E-2,1.227750033E-1,1.280308548E-1
3.390561451E0,-5.252600089E-2,-2.033800073E-2,1.680500060E-1,1.772383129E-1
3.395572235E0,-7.520800084E-2,-6.089900061E-2,2.106239945E-1,2.317917141E-1
3.400582929E0,-8.991300315E-2,-6.979700178E-2,2.579379976E-1,2.819361279E-1
3.405593773E0,-9.400899708E-2,-8.324100077E-2,2.502790093E-1,2.800113181E-1
3.410604477E0,-8.537500352E-2,-5.962099880E-2,1.855999976E-1,2.128166202E-1
3.415615245E0,-7.856100053E-2,-2.811999992E-2,1.022849977E-1,1.320029771E-1
3.420626019E0,-6.222299859E-2,8.892999962E-3,3.135599941E-2,7.024233553E-2
3.425636788E0,-2.986199968E-2,2.096099965E-2,-3.939500079E-2,5.369421401E-2
3.430647528E0,1.096200012E-2,5.324000120E-2,-8.840300143E-2,1.037774245E-1
3.435658298E0,2.755700052E-2,5.658499897E-2,-1.230320036E-1,1.381959634E-1
3.440669067E0,4.394799843E-2,4.330400005E-2,-1.672870070E-1,1.783020070E-1
3.445679578E0,5.101900175E-2,1.644900069E-2,-2.093210071E-1,2.160758945E-1
3.450690346E0,6.314899772E-2,8.678000420E-3,-2.776260078E-1,2.848496161E-1
3.455701115E0,7.749699801E-2,-3.735000035E-3,-3.435930014E-1,3.522440709E-1
3.460711884E0,8.924300224E-2,-2.060000040E-2,-4.096719921E-1,4.197854387E-1
3.465722653E0,9.107500315E-2,-2.782700025E-2,-4.518820047E-1,4.618076920E-1
3.470733624E0,7.588300109E-2,-4.164699838E-2,-4.631690085E-1,4.711881076E-1
3.475744396E0,3.002000041E-2,-2.685399912E-2,-4.408740103E-1,4.427100978E-1
3.480754939E0,-1.925999997E-3,-2.369100042E-2,-3.900049925E-1,3.907286362E-1
3.485765706E0,-2.068899944E-2,-1.311200019E-2,-3.130219877E-1,3.139788592E-1
3.490776494E0,-2.910600044E-2,2.729000058E-3,-1.909019947E-1,1.931273629E-1
3.495787189E0,-2.969699912E-2,1.672199927E-2,-3.324599937E-2,4.761127482E-2
3.500797961E0,-8.283999749E-3,4.297199845E-2,1.336639971E-1,1.406459435E-1
3.505808807E0,7.120999973E-3,2.961299941E-2,2.786119878E-1,2.802717933E-1
3.510819578E0,3.353999928E-2,1.455499977E-2,3.777999878E-1,3.795650278E-1
3.515830271E0,7.808099687E-2,-3.019900061E-2,4.573589861E-1,4.649579163E-1
3.520841038E0,8.732900023E-2,-8.324000239E-2,4.744499922E-1,4.895488202E-1
3.525851778E0,8.355099708E-2,-1.026889980E-1,4.510050118E-1,4.700333181E-1
3.530862547E0,6.250599772E-2,-1.055459976E-1,4.302259982E-1,4.473716205E-1
3.535873317E0,2.236500010E-2,-1.180220023E-1,3.738610148E-1,3.926849178E-1
3.540884086E0,-1.777900010E-2,-1.139610037E-1,3.465540111E-1,3.652435979E-1
3.545894855E0,-4.173500091E-2,-9.866999835E-2,3.005149961E-1,3.190405017E-1
3.550905624E0,-5.229999870E-2,-7.906500250E-2,2.954489887E-1,3.102848198E-1
3.555916394E0,-3.139299899E-2,-9.039200097E-2,2.784210145E-1,2.944053253E-1
3.560927164E0,8.314999752E-3,-8.561199903E-2,2.280170023E-1,2.437012658E-1
3.565937921E0,2.673899941E-2,-9.112399817E-2,1.562950015E-1,1.828843477E-1
3.570948690E0,4.072999954E-2,-5.756400153E-2,9.221000224E-2,1.160828654E-1
3.575959229E0,5.271900073E-2,-2.329600044E-2,2.142900042E-2,6.149145252E-2
3.580969981E0,6.037500128E-2,9.317999706E-3,-5.843999982E-2,8.454111117E-2
3.585980750E0,5.907300115E-2,1.689800061E-2,-1.618729979E-1,1.731416453E-1
3.590991525E0,3.934400156E-2,1.658100076E-2,-2.602399886E-1,2.637190393E-1
3.596002294E0,1.536999946E-3,2.276900038E-2,-3.343620002E-1,3.351398767E-1
3.601013063E0,-1.916700043E-2,3.795700148E-2,-3.508520126E-1,3.534193580E-1
3.606023817E0,-1.639799960E-2,5.493199825E-2,-3.768000007E-1,3.811360116E-1
3.611034587E0,4.383999854E-3,6.669099629E-2,-3.908039927E-1,3.964778294E-1
3.616045281E0,3.545400128E-2,7.115600258E-2,-4.145539999E-1,4.221080214E-1
3.621056048E0,4.833000153E-2,6.648200005E-2,-4.170579910E-1,4.250800081E-1
3.626066817E0,7.794699818E-2,1.001690030E-1,-3.385280073E-1,3.615394521E-1
3.631077616E0,9.837900102E-2,1.204129979E-1,-2.102400064E-1,2.614929793E-1
3.636088385E0,1.220159978E-1,1.275729984E-1,-9.206099808E-2,1.990929456E-1
3.641099168E0,1.284449995E-1,1.122409999E-1,-2.935500070E-2,1.730834366E-1
3.646109937E0,9.058199823E-2,8.436699957E-2,3.302000090E-2,1.281140487E-1
3.651120697E0,3.314900026E-2,2.556500025E-2,8.060800284E-2,9.082992667E-2
3.656131467E0,-3.154699877E-2,-2.135699987E-2,1.326629966E-1,1.380246545E-1
3.661142237E0,-8.022999763E-2,-7.081799954E-2,2.082690001E-1,2.341538340E-1
3.666153025E0,-1.039389968E-1,-1.020179987E-1,2.788279951E-1,3.145727864E-1
3.671163794E0,-1.148369983E-1,-9.952999651E-2,3.446719944E-1,3.766862622E-1
3.676174573E0,-9.213799983E-2,-8.288499713E-2,4.153749943E-1,4.334693987E-1
3.681185342E0,-6.441199780E-2,-9.697899967E-2,4.692730010E-1,4.834986880E-1
3.686195863E0,-7.095000148E-2,-1.110439971E-1,4.779230058E-1,4.957570690E-1
3.691206630E0,-9.455399960E-2,-1.348869950E-1,4.342699945E-1,4.644624725E-1
3.696217399E0,-1.375129968E-1,-1.404809952E-1,3.624419868E-1,4.123213893E-1
3.701228177E0,-1.744370013E-1,-1.490630060E-1,3.101010025E-1,3.857598721E-1
3.706238947E0,-1.891019940E-1,-1.512690037E-1,2.461230010E-1,3.452801866E-1
3.711249716E0,-1.865079999E-1,-1.564140022E-1,1.775950044E-1,3.013147187E-1
3.716260495E0,-1.645900011E-1,-1.226549968E-1,7.128699869E-2,2.172923213E-1
3.721271264E0,-1.312759966E-1,-6.018299982E-2,-2.488899976E-2,1.465429734E-1
3.726281959E0,-1.147760004E-1,-2.561599948E-2,-1.445769966E-1,1.863658167E-1
3.731292726E0,-7.311599702E-2,-1.096300036E-2,-2.594259977E-1,2.697554164E-1
3.736303504E0,-3.261800110E-2,-2.005299926E-2,-3.529359996E-1,3.550068684E-1
3.741314273E0,2.981100045E-2,-3.334499896E-2,-4.301269948E-1,4.324463162E-1
3.746325043E0,6.467899680E-2,-6.215199828E-2,-4.814859927E-1,4.897703591E-1
3.751335823E0,1.024719998E-1,-9.644199908E-2,-4.809080064E-1,5.010729294E-1
3.756346592E0,1.404940039E-1,-6.633000076E-2,-4.566659927E-1,4.823712917E-1
3.761357438E0,1.369169950E-1,-2.514999919E-2,-4.395059943E-1,4.610252759E-1
3.766368133E0,1.089560017E-1,3.190600127E-2,-3.504019976E-1,3.683353949E-1
3.771378900E0,5.322000012E-2,5.499500036E-2,-3.017129898E-1,3.112676448E-1
3.776389673E0,5.293999799E-3,5.618000031E-2,-2.767620087E-1,2.824560644E-1
3.781400213E0,-4.010799900E-2,6.870599836E-2,-2.324829996E-1,2.457183568E-1
3.786410981E0,-7.876700163E-2,6.916599721E-2,-1.595280021E-1,1.908857228E-1
3.791421736E0,-8.532600105E-2,6.717000157E-2,-6.283599883E-2,1.254619397E-1
3.796432505E0,-5.821400136E-2,7.198800147E-2,3.361099958E-2,9.849285051E-2
3.801443284E0,-4.630000039E-4,8.817200363E-2,1.297799945E-1,1.568992147E-1
3.806454054E0,8.032300323E-2,8.509700000E-2,2.206950039E-1,2.497990572E-1
3.811464823E0,1.469649971E-1,4.960199818E-2,3.014329970E-1,3.389998824E-1
3.816475596E0,2.099049985E-1,-6.087999791E-3,3.242039979E-1,3.862711540E-1
3.821486365E0,2.534210086E-1,-3.964700177E-2,3.204639852E-1,4.104768668E-1
3.826497131E0,2.503550053E-1,-4.680199921E-2,3.097209930E-1,4.009927048E-1
3.831507901E0,2.115740031E-1,-3.746600077E-2,2.946450114E-1,3.646682640E-1
3.836518671E0,1.289000064E-1,-2.141799964E-2,2.539539933E-1,2.855986223E-1
3.841529440E0,2.672499977E-2,1.282600034E-2,1.926259995E-1,1.948935801E-1
3.846540218E0,-3.655400127E-2,4.363400117E-2,1.224460006E-1,1.350301601E-1
3.851550987E0,-7.620300353E-2,7.329999655E-2,3.852099925E-2,1.125329046E-1
3.856561680E0,-6.737799942E-2,8.767600358E-2,-6.419900060E-2,1.278608153E-1
3.861572442E0,-2.098800056E-2,8.958499879E-2,-1.668860018E-1,1.905699498E-1
3.866583289E0,2.888699993E-2,7.493299991E-2,-2.363090068E-1,2.495823711E-1
3.871594060E0,6.808400154E-2,2.812200040E-2,-2.823170125E-1,2.917690418E-1
3.876604757E0,6.885199994E-2,-1.270100009E-2,-3.310500085E-1,3.383726074E-1
3.881615524E0,4.162799940E-2,-4.770800099E-2,-3.823330104E-1,3.875402877E-1
3.886626294E0,1.463900041E-2,-5.113200098E-2,-3.906300068E-1,3.942341741E-1
3.891637077E0,-1.225799974E-2,-4.022900015E-2,-3.821479976E-1,3.844550989E-1
3.896647846E0,-5.571600050E-2,-2.000099979E-2,-3.759599924E-1,3.805919450E-1
3.901658606E0,-7.155500352E-2,-4.007999785E-3,-2.791529894E-1,2.882057843E-1
3.906669376E0,-6.723900139E-2,5.173699930E-2,-1.942799985E-1,2.119965053E-1
3.911679916E0,-3.391399980E-2,1.133219972E-1,-1.165580004E-1,1.660656554E-1
3.916690683E0,2.463999903E-3,1.363759935E-1,-6.536199898E-2,1.512503680E-1
3.921701453E0,3.715600073E-2,1.566630006E-1,-2.869099937E-2,1.635452157E-1
3.926712251E0,5.647899956E-2,1.373459995E-1,1.950200088E-2,1.497802691E-1
3.931723020E0,7.260199636E-2,1.190510020E-1,5.772500113E-2,1.509184107E-1
3.936733779E0,7.193300128E-2,8.332400024E-2,9.548900276E-2,1.457236952E-1
3.941744474E0,7.354100049E-2,4.703300074E-2,1.518909931E-1,1.751891997E-1
3.946755318E0,4.966099933E-2,-1.249999972E-3,2.341189981E-1,2.393313239E-1
3.951766001E0,2.208000049E-2,-8.003599942E-2,3.013660014E-1,3.125935930E-1
3.956776845E0,-1.117699966E-2,-1.537059993E-1,3.753139973E-1,4.057228809E-1
3.961787617E0,-3.813400120E-2,-2.134180069E-1,4.298439920E-1,4.814221694E-1
3.966798319E0,-7.949499786E-2,-2.459650040E-1,4.653930068E-1,5.323616145E-1
3.971809086E0,-1.233540028E-1,-2.548730075E-1,4.583239853E-1,5.387367961E-1
3.976819855E0,-1.696020067E-1,-2.460010052E-1,3.969669938E-1,4.968542335E-1
3.981830625E0,-1.906960011E-1,-1.850299984E-1,3.270129859E-1,4.213532462E-1
3.986841384E0,-1.806689948E-1,-1.202559993E-1,2.196550071E-1,3.087897556E-1
3.991852153E0,-1.545670033E-1,-8.694799989E-2,8.658599854E-2,1.973525990E-1
3.996862922E0,-1.156049967E-1,-3.270199895E-2,-1.483900007E-2,1.210542520E-1
4.001873668E0,-9.215400368E-2,2.799100056E-2,-1.084650010E-1,1.450534831E-1
4.006884438E0,-6.541399658E-2,7.443200052E-2,-1.682370007E-1,1.952506135E-1
4.011895208E0,-4.492599890E-2,1.167490035E-1,-1.799360067E-1,2.191475341E-1
4.016905746E0,-2.812300064E-2,1.342310011E-1,-1.676730067E-1,2.166174093E-1
4.021916504E0,1.989999972E-2,1.506910026E-1,-1.698649973E-1,2.279427682E-1
4.026927273E0,4.739499837E-2,1.429360062E-1,-1.721979976E-1,2.287556297E-1
4.031938042E0,8.991599828E-2,1.208050027E-1,-1.987250000E-1,2.493398505E-1
4.036948811E0,1.334369928E-1,8.928199857E-2,-2.733719945E-1,3.170314711E-1
4.041959572E0,1.662240028E-1,7.675299793E-2,-3.433710039E-1,3.891337663E-1
4.046970266E0,1.723819971E-1,6.918399781E-2,-4.038789868E-1,4.445449522E-1
4.051981042E0,1.502680033E-1,8.554600179E-2,-4.379790127E-1,4.708759994E-1
4.056991888E0,8.669900149E-2,1.279959977E-1,-4.214920104E-1,4.489490028E-1
4.062002660E0,3.628899902E-2,1.636800021E-1,-3.666239977E-1,4.031391698E-1
4.067013429E0,-1.296599954E-2,1.951449960E-1,-3.069269955E-1,3.639421207E-1
4.072024198E0,-1.195999980E-2,2.131370008E-1,-2.378879935E-1,3.196265323E-1
4.077034967E0,5.197000224E-3,2.065760046E-1,-1.550610065E-1,2.583497053E-1
4.082045660E0,3.120999970E-2,1.618999988E-1,-9.218800068E-2,1.889028882E-1
4.087056427E0,3.119600005E-2,7.786899805E-2,-2.310200036E-2,8.700846911E-2
4.092067206E0,2.224200033E-2,-1.429999992E-2,2.589699998E-2,3.701150071E-2
4.097077975E0,-2.781400084E-2,-8.666799963E-2,7.198899984E-2,1.160490280E-1
4.102088745E0,-9.687999636E-2,-1.352480054E-1,1.322380006E-1,2.125197531E-1
4.107099514E0,-1.562989950E-1,-1.704819947E-1,1.398739964E-1,2.702928435E-1
4.112110268E0,-1.972970068E-1,-1.953109950E-1,1.451770067E-1,3.132871797E-1
4.117120809E0,-1.952220052E-1,-2.033620030E-1,1.313479990E-1,3.109984444E-1
4.122131576E0,-1.771609932E-1,-1.952240020E-1,1.271349937E-1,2.926802609E-1
4.127142360E0,-1.483519971E-1,-1.712539941E-1,1.277679950E-1,2.601171007E-1
4.132153129E0,-1.605879962E-1,-1.411190033E-1,1.645160019E-1,2.697565431E-1
4.137163899E0,-1.705130041E-1,-1.120460033E-1,1.895760000E-1,2.785104149E-1
4.142174683E0,-1.923300028E-1,-1.050949991E-1,2.243809998E-1,3.136600419E-1
4.147185452E0,-2.161280066E-1,-1.106690019E-1,2.378730029E-1,3.399154435E-1
4.152196221E0,-2.323449999E-1,-1.147869974E-1,2.205740064E-1,3.403133058E-1
4.157207001E0,-2.158289999E-1,-1.103010029E-1,2.153709978E-1,3.242424018E-1
4.162218001E0,-1.789360046E-1,-1.024250016E-1,1.912000030E-1,2.811875101E-1
4.167228550E0,-1.149759963E-1,-1.075820029E-1,1.359270066E-1,2.080132645E-1
4.172239317E0,-6.646399945E-2,-1.067249998E-1,6.163199991E-2,1.400221134E-1
4.177250111E0,-2.600499988E-2,-1.022479981E-1,-1.728899963E-2,1.069103486E-1
4.182260880E0,8.564000018E-3,-9.395200014E-2,-7.699900120E-2,1.217750656E-1
4.187271574E0,2.092199959E-2,-6.515099853E-2,-8.390899748E-2,1.082732771E-1
4.192282361E0,3.258699924E-2,-1.147099957E-2,-6.423600018E-2,7.293668535E-2
4.197293131E0,6.439000368E-2,6.685400009E-2,3.503999906E-3,9.288599420E-2
4.202303904E0,9.532199800E-2,1.364279985E-1,5.237599835E-2,1.744767242E-1
4.207314673E0,1.490300000E-1,1.835200042E-1,9.652899951E-2,2.553573585E-1
4.212325438E0,1.927649975E-1,1.922689974E-1,9.039299935E-2,2.868738503E-1
4.217336208E0,2.246329933E-1,1.704040021E-1,3.150700033E-2,2.837079426E-1
4.222346748E0,2.263700068E-1,1.165060028E-1,-5.631199852E-2,2.607452202E-1
4.227357755E0,1.894769967E-1,4.823499918E-2,-1.324619949E-1,2.361658898E-1
4.232368526E0,1.218099967E-1,-5.863000173E-3,-1.776479930E-1,2.154782111E-1
4.237379060E0,4.733299837E-2,-5.781200156E-2,-2.253510058E-1,2.374146501E-1
4.242389827E0,-8.611000143E-3,-1.053280011E-1,-2.445929945E-1,2.664467490E-1
4.247400596E0,-4.220699891E-2,-1.370580047E-1,-2.592929900E-1,2.963092676E-1
4.252411357E0,-5.008300021E-2,-1.371989995E-1,-2.215690017E-1,2.653765153E-1
4.257422126E0,-5.175999925E-2,-1.302569956E-1,-1.839780062E-1,2.312874601E-1
4.262432895E0,-3.376799822E-2,-1.002769992E-1,-1.273089945E-1,1.655395251E-1
4.267443895E0,-3.163300082E-2,-5.959400162E-2,-5.619699880E-2,8.780771290E-2
4.272454666E0,-2.847000025E-2,-2.028599940E-2,2.941199951E-2,4.568510043E-2
4.277465205E0,-1.485200040E-2,-3.499000100E-3,1.030709967E-1,1.041943150E-1
4.282475972E0,2.388000023E-3,-9.012999944E-3,1.264909953E-1,1.268341776E-1
4.287486731E0,3.288700059E-2,-2.709300071E-2,1.068219990E-1,1.150066301E-1
4.292497500E0,5.552800000E-2,-3.646399826E-2,6.813099980E-2,9.515679212E-2
4.297508270E0,5.923600122E-2,-4.176500067E-2,1.291500032E-2,7.362076035E-2
4.302519039E0,4.469000176E-2,-4.520599917E-2,-4.440300167E-2,7.753970063E-2
4.307529808E0,5.433399975E-2,-3.038500063E-2,-1.038369983E-1,1.210683857E-1
4.312540577E0,8.288799971E-2,-6.941999774E-3,-1.726209968E-1,1.916158146E-1
4.317551257E0,1.112859994E-1,3.666200116E-2,-2.625969946E-1,2.875514868E-1
4.322562024E0,1.393779963E-1,4.454199970E-2,-3.287279904E-1,3.598226053E-1
4.327572789E0,1.484030038E-1,5.076299980E-2,-3.567500114E-1,3.897061770E-1
4.332583558E0,1.295759976E-1,4.880100116E-2,-3.610740006E-1,3.867116636E-1
4.337594328E0,1.066299975E-1,6.947200000E-2,-3.177250028E-1,3.422652371E-1
4.342605097E0,7.973200083E-2,9.358000010E-2,-2.529860139E-1,2.812762550E-1
4.347615866E0,4.882699996E-2,1.116869971E-1,-1.645130068E-1,2.047500688E-1
4.352626601E0,4.424700141E-2,1.052270010E-1,-5.976000056E-2,1.288478814E-1
4.357637371E0,6.492800266E-2,1.117009968E-1,5.892499909E-2,1.420032173E-1
4.362648141E0,1.032039970E-1,1.209110022E-1,1.485659927E-1,2.175830638E-1
4.367658665E0,1.215500012E-1,1.278340071E-1,2.404499948E-1,2.982149161E-1
4.372669433E0,1.249779984E-1,1.554459929E-1,3.181239963E-1,3.754808035E-1
4.377680188E0,1.025139987E-1,1.703640074E-1,3.553830087E-1,4.072224181E-1
4.382690957E0,5.263099819E-2,1.822019964E-1,3.906359971E-1,4.342396477E-1
4.387701726E0,1.606000005E-3,1.771180034E-1,4.356969893E-1,4.703246037E-1
4.392712501E0,-4.803400114E-2,1.460880041E-1,4.521549940E-1,4.775909430E-1
4.397723270E0,-6.819000095E-2,8.033300191E-2,4.468820095E-1,4.591370142E-1
4.402734039E0,-8.506000042E-2,1.592800021E-2,4.342049956E-1,4.427447155E-1
4.407744733E0,-1.080700010E-1,-2.835400030E-2,4.381760061E-1,4.521960711E-1
4.412755578E0,-1.205589995E-1,-6.232199818E-2,4.468809962E-1,4.670343977E-1
4.417766349E0,-1.483190060E-1,-7.450599968E-2,4.701049924E-1,4.985462620E-1
4.422777041E0,-1.861120015E-1,-9.354799986E-2,4.767929912E-1,5.203080451E-1
4.427787808E0,-2.125560045E-1,-9.890799969E-2,4.217239916E-1,4.825080026E-1
4.432798568E0,-2.003329992E-1,-5.865700170E-2,3.386009932E-1,3.977745429E-1
4.437809337E0,-1.601510048E-1,-6.988999899E-3,2.346059978E-1,2.841428596E-1
4.442820106E0,-1.142100021E-1,4.674100131E-2,1.454769969E-1,1.907674040E-1
4.447830885E0,-6.727600098E-2,9.564899653E-2,6.395699829E-2,1.332864902E-1
4.452841426E0,-5.690000253E-4,1.189050004E-1,-2.694500051E-2,1.219211054E-1
4.457852193E0,4.819700122E-2,1.198830009E-1,-1.202220023E-1,1.764885680E-1
4.462862962E0,6.326899678E-2,1.111520007E-1,-1.919459999E-1,2.306534198E-1
4.467873962E0,6.191499904E-2,8.154200017E-2,-2.637889981E-1,2.829614822E-1
4.472884734E0,7.704800367E-2,5.973599851E-2,-3.142980039E-1,3.290714507E-1
4.477895503E0,8.019100130E-2,2.016299963E-2,-3.460350037E-1,3.557771311E-1
4.482906276E0,8.540900052E-2,5.929999752E-4,-3.660869896E-1,3.759185191E-1
4.487916815E0,1.087429971E-1,-4.207000136E-3,-3.792310059E-1,3.945363026E-1
4.492927582E0,1.358380020E-1,-1.776000019E-3,-4.116910100E-1,4.335257832E-1
4.497938351E0,1.430460066E-1,1.048999955E-3,-4.084799886E-1,4.328038372E-1
4.502949120E0,1.309199929E-1,-2.342100069E-2,-3.841499984E-1,4.065215973E-1
4.507959881E0,1.024070010E-1,-2.751399949E-2,-3.265979886E-1,3.433809258E-1
4.512970650E0,7.660599798E-2,-6.764099747E-2,-2.504689991E-1,2.705152547E-1
4.517981368E0,5.130299926E-2,-1.242740005E-1,-1.821620017E-1,2.264045490E-1
4.522992212E0,4.503900185E-2,-1.667519957E-1,-9.053999931E-2,1.950185407E-1
4.528002983E0,6.689299643E-2,-2.050819993E-1,-2.341300063E-2,2.169826445E-1
4.533013753E0,6.504099816E-2,-2.231429964E-1,5.541199818E-2,2.389427083E-1
4.538024445E0,5.463200063E-2,-2.523260117E-1,8.153200150E-2,2.707407227E-1
4.543035207E0,8.009999990E-3,-2.644779980E-1,8.398099989E-2,2.776068801E-1
4.548045977E0,-2.535800077E-2,-2.583079934E-1,4.857200012E-2,2.640554617E-1
4.553056765E0,-4.872599989E-2,-2.321020067E-1,1.124799997E-2,2.374280566E-1
4.558067534E0,-7.681600004E-2,-2.116750032E-1,1.249300037E-2,2.255284459E-1
4.563078380E0,-8.666899800E-2,-1.706839949E-1,1.071809977E-1,2.193907646E-1
4.568089089E0,-6.438799948E-2,-1.124090031E-1,1.566880047E-1,2.033045235E-1
4.573099856E0,-8.230700344E-2,-1.094499975E-1,1.680590063E-1,2.167892396E-1
4.578110635E0,-7.858999819E-2,-1.161570027E-1,1.555420011E-1,2.094329277E-1
4.583121404E0,-7.485699654E-2,-1.204809994E-1,1.478179991E-1,2.048643502E-1
4.588131935E0,-7.127500325E-2,-1.108999997E-1,1.377969980E-1,1.907012027E-1
4.593142933E0,-6.552600116E-2,-9.904299676E-2,1.588809937E-1,1.983591243E-1
4.598153704E0,-5.970799923E-2,-5.246999860E-2,1.707150042E-1,1.883129273E-1
4.603164242E0,-3.507199883E-2,-2.329000086E-2,1.802739948E-1,1.851247753E-1
4.608175010E0,-2.663699910E-2,-4.488000181E-3,1.279200017E-1,1.307409603E-1
4.613185779E0,5.630000029E-3,-2.758000046E-3,6.366900355E-2,6.397691363E-2
4.618196548E0,2.607999928E-2,8.120000130E-4,-1.716200076E-2,3.123075370E-2
4.623207327E0,4.191400111E-2,3.809999907E-3,-9.542299807E-2,1.042921289E-1
4.628218097E0,2.756199986E-2,-5.569999921E-4,-1.615220010E-1,1.638576544E-1
4.633228866E0,-9.294000454E-3,1.824299991E-2,-2.248010039E-1,2.257314264E-1
4.638239630E0,-5.671599880E-2,3.637300059E-2,-2.637470067E-1,2.722171619E-1
4.643250324E0,-8.688899875E-2,3.988999873E-2,-2.857899964E-1,3.013583119E-1
4.648261092E0,-9.139200300E-2,4.791299999E-2,-2.887139916E-1,3.066005916E-1
4.653271847E0,-8.513300121E-2,6.472799927E-2,-2.892270088E-1,3.083660234E-1
4.658282616E0,-8.734499663E-2,8.808200061E-2,-2.658439875E-1,2.933608920E-1
4.663293385E0,-5.612700060E-2,1.205860004E-1,-1.733459979E-1,2.184949855E-1
4.668304232E0,3.567799926E-2,1.502790004E-1,-9.095200151E-2,1.792455416E-1
4.673314926E0,8.665700257E-2,1.750469953E-1,3.042000113E-3,1.953462066E-1
4.678325688E0,1.448619962E-1,1.646959931E-1,8.689200133E-2,2.359236910E-1
4.683336457E0,1.917960048E-1,1.508229971E-1,1.964630038E-1,3.132586723E-1
4.688347227E0,2.096160054E-1,1.286650002E-1,2.864939868E-1,3.775875481E-1
4.693357996E0,2.089779973E-1,1.144540012E-1,3.381499946E-1,4.136628344E-1
4.698368765E0,1.557539999E-1,1.054069996E-1,3.637729883E-1,4.095127972E-1
4.703379534E0,9.578300267E-2,8.492799848E-2,3.466219902E-1,3.695050103E-1
4.708390304E0,2.453700081E-2,9.058800340E-2,3.228200078E-1,3.361859726E-1
4.713401064E0,-1.827000082E-2,1.031010002E-1,3.113969862E-1,3.285295911E-1
4.718411834E0,-4.301099852E-2,8.486299962E-2,2.905099988E-1,3.056922212E-1
4.723422373E0,-1.070399955E-2,8.542600274E-2,2.552999854E-1,2.694257970E-1
4.728433140E0,7.563999854E-3,7.853800058E-2,1.986770034E-1,2.137708664E-1
4.733443909E0,5.386000033E-3,5.254299939E-2,1.087139994E-1,1.208656669E-1
4.738454678E0,1.342500001E-2,4.061999917E-2,2.850300074E-2,5.140657554E-2
4.743465423E0,-3.814999945E-3,2.607800066E-2,-5.148300156E-2,5.783697600E-2
4.748476192E0,-3.674099967E-2,6.893999875E-3,-1.241599992E-1,1.296654684E-1
4.753486961E0,-6.882199645E-2,-4.693600163E-2,-1.611489952E-1,1.814068744E-1
4.758497745E0,-5.166799948E-2,-6.684199721E-2,-1.720860004E-1,1.917055719E-1
4.763508515E0,-4.910799861E-2,-5.635400116E-2,-1.948280036E-1,2.086751542E-1
4.768519275E0,-4.452899843E-2,-2.321800031E-2,-2.053100020E-1,2.113624947E-1
4.773530045E0,-2.666000091E-2,1.116800029E-2,-1.869300008E-1,1.891515400E-1
4.778540814E0,2.494299971E-2,6.315500289E-2,-1.469299942E-1,1.618614557E-1
4.783551512E0,6.307099760E-2,9.956599772E-2,-1.379379928E-1,1.814338130E-1
4.788562279E0,7.426799834E-2,1.068369970E-1,-1.480640024E-1,1.971112080E-1
4.793573057E0,8.267100155E-2,8.341799676E-2,-1.870789975E-1,2.208882251E-1
4.798583903E0,9.766999632E-2,7.458800077E-2,-1.927459985E-1,2.285909403E-1
4.803594598E0,7.966899872E-2,6.834899634E-2,-2.270970047E-1,2.501835010E-1
4.808605355E0,4.789000005E-2,5.818200111E-2,-2.113409936E-1,2.243738241E-1
4.813616124E0,1.640800014E-2,8.165200055E-2,-1.716450006E-1,1.907833271E-1
4.818626908E0,-1.277799997E-2,9.623000026E-2,-8.907800168E-2,1.317512073E-1
4.823637449E0,-4.181699827E-2,9.989400208E-2,9.965999983E-3,1.087510651E-1
4.828648437E0,-7.724600285E-2,6.238299981E-2,8.467599750E-2,1.304937093E-1
4.833658977E0,-9.769099951E-2,7.950000465E-3,1.516810060E-1,1.805930825E-1
4.838669975E0,-8.711100370E-2,-3.764700145E-2,1.870999932E-1,2.097904458E-1
4.843680512E0,-9.514600039E-2,-9.111300111E-2,2.125519961E-1,2.500653743E-1
4.848691279E0,-1.117480025E-1,-1.593510062E-1,2.112890035E-1,2.872688675E-1
4.853702072E0,-1.225849986E-1,-2.583940029E-1,1.902920008E-1,3.435194146E-1
4.858712841E0,-1.141550019E-1,-3.502610028E-1,1.901959926E-1,4.145945611E-1
4.863723611E0,-1.032039970E-1,-3.912760019E-1,1.612530053E-1,4.356036115E-1
4.868734375E0,-1.480029970E-1,-3.734200001E-1,1.543969959E-1,4.303322158E-1
4.873745375E0,-1.959149987E-1,-3.075450063E-1,1.962980032E-1,4.141250097E-1
4.878755891E0,-2.491080016E-1,-2.185460031E-1,2.346100062E-1,4.060283327E-1
4.883766659E0,-3.187470138E-1,-1.473869979E-1,1.570779979E-1,3.847025908E-1
4.888777428E0,-3.449409902E-1,-9.110400081E-2,1.115270033E-1,3.737947273E-1
4.893788197E0,-2.967549860E-1,-3.972800076E-2,1.046030000E-1,3.171492131E-1
4.898798891E0,-2.015009969E-1,1.598799974E-2,8.358299732E-2,2.187335945E-1
4.903809745E0,-8.107800037E-2,7.857800275E-2,5.793600157E-2,1.269043929E-1
4.908820439E0,4.811099917E-2,1.241419986E-1,-5.124700069E-2,1.426609937E-1
4.913831206E0,1.486479938E-1,1.444370002E-1,-1.412879974E-1,2.508397322E-1
4.918841975E0,2.165759951E-1,1.638360023E-1,-2.073799968E-1,3.416926402E-1
4.923852745E0,2.623470128E-1,1.848739982E-1,-2.805159986E-1,4.262552941E-1
4.928863504E0,2.727249861E-1,2.173579931E-1,-3.414309919E-1,4.880558753E-1
4.933874273E0,2.811650038E-1,2.284599990E-1,-4.094629884E-1,5.467244912E-1
4.938884824E0,2.735930085E-1,2.024690062E-1,-4.968320131E-1,6.022365665E-1
4.943895822E0,2.614679933E-1,1.621609926E-1,-5.154500008E-1,6.002919309E-1
4.948906593E0,2.240040004E-1,9.876900166E-2,-5.061119795E-1,5.622120985E-1
4.953917352E0,1.616110057E-1,5.968600139E-2,-4.638420045E-1,4.948029316E-1
4.958928121E0,7.704800367E-2,3.951499984E-2,-3.860119879E-1,3.956047079E-1
4.963938891E0,9.360000258E-4,3.986699879E-2,-3.035849929E-1,3.061929156E-1
4.968949429E0,-3.948599845E-2,4.351500049E-2,-2.262410074E-1,2.337470701E-1
4.973960196E0,-4.332999885E-2,4.132699966E-2,-8.735299855E-2,1.059054109E-1
4.978970952E0,-5.333400145E-2,1.042999979E-2,1.152120009E-1,1.273856576E-1
4.983981721E0,-8.470500261E-2,-2.143800072E-2,2.551789880E-1,2.697236387E-1
4.988992490E0,-1.202580035E-1,-5.697799847E-2,3.662100136E-1,3.896386195E-1
4.994003259E0,-1.389289945E-1,-7.809499651E-2,4.222100079E-1,4.512885826E-1
4.999014029E0,-1.410609931E-1,-9.689400345E-2,4.662359953E-1,4.966514421E-1
5.004024807E0,-1.222509965E-1,-8.546999842E-2,5.175989866E-1,5.386642161E-1
5.009035576E0,-8.946599811E-2,-4.501799867E-2,5.120700002E-1,5.217724313E-1
5.014046336E0,-6.338600069E-2,-2.187999897E-3,4.331339896E-1,4.377529273E-1
5.019057031E0,-2.529099956E-2,3.137100115E-2,3.260940015E-1,3.285743024E-1
5.024067875E0,1.985600032E-2,6.100599840E-2,2.481900007E-1,2.563479452E-1
5.029078646E0,7.883200049E-2,1.055129990E-1,1.587810069E-1,2.062980500E-1
5.034089338E0,1.048569977E-1,1.250350028E-1,5.302200094E-2,1.715811018E-1
5.039100125E0,1.172960028E-1,1.368889958E-1,-4.049500078E-2,1.847614530E-1
5.044110894E0,1.046530008E-1,1.552820057E-1,-1.264359951E-1,2.259442691E-1
5.049121663E0,8.606900275E-2,1.500660032E-1,-2.050770074E-1,2.682988213E-1
5.054132432E0,6.392200291E-2,1.382019967E-1,-2.669099867E-1,3.072893675E-1
5.059143202E0,3.338100016E-2,1.106989980E-1,-3.216870129E-1,3.418348923E-1
5.064153971E0,1.314300019E-2,7.250899822E-2,-3.838889897E-1,3.908977484E-1
5.069164730E0,1.174800005E-2,4.288300127E-2,-3.962920010E-1,3.987785317E-1
5.074175499E0,1.905900054E-2,5.413000006E-3,-3.973839879E-1,3.978775941E-1
5.079186268E0,3.262099996E-2,-3.504199907E-2,-3.824140131E-1,3.853992070E-1
5.084197038E0,3.337800130E-2,-9.224200249E-2,-3.419739902E-1,3.557652147E-1
5.089207823E0,2.852600068E-2,-1.519560069E-1,-3.047339916E-1,3.417121104E-1
5.094218362E0,1.100800000E-2,-1.744170040E-1,-2.177609950E-1,2.792173317E-1
5.099229130E0,-4.214600101E-2,-1.699409932E-1,-1.045970023E-1,2.039528363E-1
5.104239879E0,-8.543100208E-2,-1.417739987E-1,-8.779999916E-4,1.655267160E-1
5.109250879E0,-1.236499995E-1,-1.257890016E-1,9.099099785E-2,1.984730636E-1
5.114261419E0,-1.195489988E-1,-1.221119985E-1,1.517309994E-1,2.285292092E-1
5.119272197E0,-9.060700238E-2,-1.329659969E-1,1.835560054E-1,2.440950477E-1
5.124282966E0,-6.994300336E-2,-1.603150070E-1,2.175139934E-1,2.791151420E-1
5.129293735E0,-3.858299926E-2,-2.012429982E-1,2.582139969E-1,3.296389849E-1
5.134304490E0,-3.604200110E-2,-2.248730063E-1,3.250660002E-1,3.969065373E-1
5.139315260E0,-4.229199886E-2,-2.270710021E-1,3.705529869E-1,4.366455877E-1
5.144326029E0,-5.203700066E-2,-1.924799979E-1,3.808020055E-1,4.298448167E-1
5.149336733E0,-7.436700165E-2,-1.642770022E-1,3.463509977E-1,3.904822633E-1
5.154347577E0,-8.582899719E-2,-1.143070012E-1,3.079560101E-1,3.395137868E-1
5.159358272E0,-5.652099848E-2,-6.917899847E-2,2.176350057E-1,2.352559304E-1
5.164369097E0,-1.804099977E-2,-2.166499943E-2,1.446810067E-1,1.474023187E-1
5.169379791E0,3.172700107E-2,3.276500106E-2,3.169599921E-2,5.554083414E-2
5.174390567E0,7.863900065E-2,7.030499727E-2,-1.308870018E-1,1.681020294E-1
5.179401337E0,1.176090017E-1,1.109149978E-1,-2.404560000E-1,2.897466168E-1
5.184412106E0,1.439249963E-1,1.459189951E-1,-2.876800001E-1,3.532230742E-1
5.189422885E0,1.416729987E-1,1.757539958E-1,-3.156099916E-1,3.880339835E-1
5.194433654E0,1.301120073E-1,2.173130065E-1,-2.931590080E-1,3.874226132E-1
5.199444414E0,1.304160058E-1,2.283290029E-1,-2.804499865E-1,3.844407146E-1
5.204455184E0,1.353570074E-1,2.141769975E-1,-2.896290123E-1,3.848093950E-1
5.209465959E0,1.444090009E-1,1.874209940E-1,-2.802909911E-1,3.668018923E-1
5.214476728E0,1.365090013E-1,1.391119957E-1,-2.645080090E-1,3.285594947E-1
5.219487497E0,1.307680011E-1,8.634199947E-2,-2.280319929E-1,2.766835752E-1
5.224498036E0,1.063819975E-1,1.137000043E-3,-1.924960017E-1,2.199389298E-1
5.229508818E0,6.657899916E-2,-8.334799856E-2,-1.863670051E-1,2.147377763E-1
5.234519588E0,9.279999882E-3,-1.646600068E-1,-1.521739960E-1,2.244013397E-1
5.239530352E0,-5.833299831E-2,-1.895059943E-1,-9.657300264E-2,2.205484197E-1
5.244541121E0,-1.247759983E-1,-1.921620071E-1,-7.449999917E-3,2.292395891E-1
5.249551890E0,-1.833810061E-1,-1.572719961E-1,7.723099738E-2,2.536290621E-1
5.254562636E0,-2.114620060E-1,-1.211059988E-1,1.765059978E-1,3.008940181E-1
5.259573405E0,-2.120199949E-1,-7.931400090E-2,2.640680075E-1,3.478147517E-1
5.264584183E0,-1.692769974E-1,-3.483299911E-2,3.279350102E-1,3.706877535E-1
5.269594952E0,-1.305329949E-1,-6.374999881E-3,3.776459992E-1,3.996198244E-1
5.274605721E0,-5.090900138E-2,-7.989999722E-4,3.842900097E-1,3.876482638E-1
5.279616426E0,2.685699984E-2,1.042299997E-2,3.695169985E-1,3.706383002E-1
5.284627270E0,9.859800339E-2,2.007599920E-2,3.071269989E-1,3.231897360E-1
5.289637959E0,1.646099985E-1,2.824299969E-2,2.354349941E-1,2.886585441E-1
5.294648727E0,2.135650069E-1,6.746900082E-2,1.189429983E-1,2.535932079E-1
5.299659496E0,2.250719965E-1,8.575999737E-2,-3.037299961E-2,2.427647006E-1
5.304670274E0,2.322649956E-1,1.119669974E-1,-1.623619944E-1,3.047048636E-1
5.309681043E0,1.953680068E-1,1.280689985E-1,-2.365159988E-1,3.324306607E-1
5.314691799E0,1.571670026E-1,1.349720061E-1,-2.579340041E-1,3.308305602E-1
5.319702568E0,1.246109977E-1,1.494559944E-1,-2.649550140E-1,3.287341699E-1
5.324713337E0,9.516800195E-2,1.503829956E-1,-2.577230036E-1,3.131982448E-1
5.329724125E0,5.720600113E-2,1.382800043E-1,-2.411269993E-1,2.837888580E-1
5.334734894E0,3.175799921E-2,1.251360029E-1,-2.152629942E-1,2.510094548E-1
5.339745664E0,2.521800064E-2,1.062420011E-1,-1.826850027E-1,2.128312020E-1
5.344756429E0,4.383900017E-2,1.073609963E-1,-1.314229965E-1,1.752719187E-1
5.349767199E0,8.466800302E-2,1.229949966E-1,-1.044320017E-1,1.822154848E-1
5.354777977E0,1.215310022E-1,1.155180037E-1,-8.034799993E-2,1.859300803E-1
5.359788746E0,1.382420063E-1,8.105999976E-2,-4.977700114E-2,1.678074066E-1
5.364799290E0,9.147000313E-2,6.461999845E-3,-1.271700021E-2,9.257559618E-2
5.369810057E0,4.363099858E-2,-6.065399945E-2,2.854599990E-2,7.998403464E-2
5.374820827E0,-3.300999850E-2,-9.960299730E-2,8.400899917E-2,1.344169967E-1
5.379831581E0,-9.542600065E-2,-1.395370066E-1,8.679600060E-2,1.900269548E-1
5.384842350E0,-1.671490073E-1,-1.809789985E-1,4.192300141E-2,2.498994330E-1
5.389853044E0,-2.204869986E-1,-1.842450052E-1,2.369700000E-2,2.883093587E-1
5.394863827E0,-2.329449952E-1,-1.971199960E-1,-6.432000082E-3,3.052229254E-1
5.399874673E0,-2.178770006E-1,-1.913229972E-1,-3.116999986E-3,2.899734338E-1
5.404885429E0,-1.739809960E-1,-1.485870034E-1,4.088800028E-2,2.324205522E-1
5.409896121E0,-1.230090037E-1,-1.116209999E-1,1.086869985E-1,1.985027109E-1
5.414906889E0,-5.312100053E-2,-8.527199924E-2,1.571979970E-1,1.865592796E-1
5.419917658E0,1.202499960E-2,-3.184099868E-2,2.321079969E-1,2.345902216E-1
5.424928422E0,5.439100042E-2,1.776400022E-2,3.096179962E-1,3.148606743E-1
5.429939191E0,1.031529978E-1,2.823100053E-2,3.322089911E-1,3.489990603E-1
5.434949961E0,1.304260045E-1,3.747599944E-2,2.977389991E-1,3.272062114E-1
5.439960730E0,1.505610049E-1,5.015299842E-2,2.517130077E-1,2.975623929E-1
5.444971523E0,1.522430032E-1,5.431199819E-2,1.703059971E-1,2.348017416E-1
5.449982292E0,1.313460022E-1,6.906899810E-2,7.756700367E-2,1.674483170E-1
5.454993062E0,8.179499954E-2,5.687699839E-2,-4.807199910E-2,1.106179551E-1
5.460003832E0,6.236999854E-2,5.610299855E-2,-1.661310047E-1,1.861103809E-1
5.465014602E0,3.493700176E-2,5.734200031E-2,-2.838099897E-1,2.916450057E-1
5.470025371E0,1.576600038E-2,4.027999938E-2,-3.513000011E-1,3.539530137E-1
5.475036140E0,-2.329999988E-4,1.962600090E-2,-3.974710107E-1,3.979553223E-1
5.480046905E0,2.148500085E-2,-8.934999816E-3,-4.155139923E-1,4.161650121E-1
5.485057444E0,4.498299956E-2,-2.385899983E-2,-3.934769928E-1,3.967579439E-1
5.490068212E0,5.633699894E-2,-2.816800028E-2,-3.885299861E-1,3.936023931E-1
5.495078981E0,5.794899911E-2,-4.073699936E-2,-3.481059968E-1,3.552398833E-1
5.500089750E0,3.617199883E-2,-6.413099915E-2,-3.557839990E-1,3.633227938E-1
5.505100538E0,4.654999822E-3,-5.113099888E-2,-2.846719921E-1,2.892649151E-1
5.510111538E0,-1.819100045E-2,-4.161199927E-2,-1.040230021E-1,1.135044314E-1
5.515122310E0,-2.717999928E-2,-2.724800073E-2,2.344999928E-3,3.855781281E-2
5.520132857E0,-3.162299842E-2,-4.133699834E-2,6.313200295E-2,8.181938192E-2
5.525143624E0,-4.563000053E-2,-8.118200302E-2,9.982900321E-2,1.365226884E-1
5.530154393E0,-4.380999878E-2,-1.020499989E-1,1.244570017E-1,1.668024686E-1
5.535165163E0,-4.754899815E-2,-1.230269969E-1,1.489879936E-1,1.989823395E-1
5.540175932E0,-5.222599953E-2,-1.181859970E-1,2.189739943E-1,2.542539972E-1
5.545186626E0,-5.520800129E-2,-9.727899730E-2,3.201529980E-1,3.391298702E-1
5.550197394E0,-7.001800090E-2,-8.187200129E-2,3.856709898E-1,4.004343359E-1
5.555208163E0,-6.548000127E-2,-9.303899854E-2,4.034410119E-1,4.191760202E-1
5.560219009E0,-8.359800279E-2,-1.021070033E-1,3.951919973E-1,4.166427498E-1
5.565229703E0,-1.189009994E-1,-9.744700044E-2,3.635280132E-1,3.946973296E-1
5.570240491E0,-1.473329961E-1,-7.934600115E-2,3.061600029E-1,3.489079349E-1
5.575251260E0,-1.484580040E-1,-9.437900037E-2,2.919279933E-1,3.408359252E-1
5.580262009E0,-1.137550026E-1,-7.656300068E-2,2.730880082E-1,3.055800286E-1
5.585272778E0,-6.469199806E-2,-2.944299951E-2,1.997340024E-1,2.120038125E-1
5.590283547E0,-5.273799971E-2,-2.119999990E-4,1.245210022E-1,1.352287748E-1
5.595294317E0,-3.978800029E-2,9.091000073E-3,2.577799931E-2,4.827252322E-2
5.600305087E0,-6.319999811E-4,3.406099975E-2,-5.591300130E-2,6.547377217E-2
5.605315626E0,4.030400142E-2,9.990700334E-2,-1.251039952E-1,1.650964308E-1
5.610326394E0,7.576499879E-2,1.565649956E-1,-1.962130070E-1,2.622069355E-1
5.615337394E0,9.864400327E-2,1.693460047E-1,-2.695780098E-1,3.332881817E-1
5.620348170E0,1.181510016E-1,1.840160042E-1,-3.166339993E-1,3.848098732E-1
5.625358708E0,1.339810044E-1,2.250970006E-1,-2.251400054E-1,3.454093097E-1
5.630369476E0,1.421210021E-1,2.658610046E-1,-1.719159931E-1,3.470382712E-1
5.635380231E0,1.704159975E-1,3.153170049E-1,-1.162709966E-1,3.768094617E-1
5.640391000E0,1.807209998E-1,3.037950099E-1,-2.291199937E-2,3.542265483E-1
5.645401759E0,2.107840031E-1,2.865670025E-1,9.602800012E-2,3.684724138E-1
5.650412529E0,2.260140032E-1,2.518079877E-1,1.856939942E-1,3.859687186E-1
5.655423288E0,2.017849982E-1,1.765840054E-1,2.484740019E-1,3.655658984E-1
5.660433982E0,1.485790014E-1,1.105429977E-1,2.607699931E-1,3.198381830E-1
5.665444740E0,6.696599722E-2,5.821700022E-2,2.825840116E-1,2.961880948E-1
5.670455587E0,-2.611299977E-2,6.828399748E-2,3.215970099E-1,3.298018039E-1
5.675466358E0,-1.115920022E-1,6.694799662E-2,3.609369993E-1,3.836799795E-1
5.680477122E0,-1.753460020E-1,5.643599853E-2,3.551560044E-1,4.000837785E-1
5.685487891E0,-1.945910007E-1,3.003400005E-2,3.493829966E-1,4.010438592E-1
5.690498661E0,-2.120400071E-1,-5.892200023E-2,2.763330042E-1,3.532600968E-1
5.695509353E0,-1.999559999E-1,-1.389739960E-1,1.909720004E-1,3.094615943E-1
5.700520120E0,-1.919099987E-1,-2.144729942E-1,1.817020029E-1,3.403582387E-1
5.705530874E0,-1.760309935E-1,-2.905339897E-1,1.337540001E-1,3.650849796E-1
5.710541644E0,-2.062290013E-1,-3.423359990E-1,-6.399999984E-5,3.996552781E-1
5.715552408E0,-2.359739989E-1,-3.307870030E-1,-6.159500033E-2,4.109716701E-1
5.720563177E0,-2.519359887E-1,-2.880100012E-1,-1.249170005E-1,4.025242355E-1
5.725573962E0,-2.481469959E-1,-2.121179998E-1,-1.231160015E-1,3.488961554E-1
5.730584732E0,-2.342319936E-1,-1.276160032E-1,-1.278370023E-1,2.957917683E-1
5.735595502E0,-2.172909975E-1,-6.258200109E-2,-1.272930056E-1,2.594906429E-1
5.740606041E0,-1.924470067E-1,-7.242999971E-3,-1.478540003E-1,2.427943921E-1
5.745617039E0,-1.017559990E-1,4.281200096E-2,-2.065320015E-1,2.341850089E-1
5.750627811E0,-5.336999893E-3,9.725099802E-2,-2.435899973E-1,2.623400979E-1
5.755638580E0,7.103800029E-2,1.444530040E-1,-2.949100137E-1,3.359836068E-1
5.760649349E0,1.490689963E-1,1.756599993E-1,-3.295870125E-1,4.021263481E-1
5.765659888E0,2.056179941E-1,1.776639968E-1,-3.669439852E-1,4.566083043E-1
5.770670659E0,2.669509947E-1,1.701160073E-1,-3.927839994E-1,5.044616534E-1
5.775681428E0,3.167850077E-1,1.535300016E-1,-4.263069928E-1,5.528669411E-1
5.780692207E0,3.230870068E-1,1.615210027E-1,-4.122290015E-1,5.480939682E-1
5.785702976E0,3.151389956E-1,1.823659986E-1,-3.696539998E-1,5.188583849E-1
5.790713760E0,3.074660003E-1,1.717980057E-1,-3.204669952E-1,4.761816787E-1
5.795724529E0,2.655670047E-1,1.287769973E-1,-2.528609931E-1,3.886489816E-1
5.800735294E0,2.233850062E-1,3.787000105E-2,-1.839269996E-1,2.918289553E-1
5.805746063E0,1.533920020E-1,-8.583299816E-2,-1.304250062E-1,2.188768879E-1
5.810756833E0,7.040999830E-2,-1.953050047E-1,-1.063639969E-1,2.332700421E-1
5.815767617E0,-2.530200034E-2,-2.677530050E-1,-8.261699975E-2,2.813493053E-1
5.820778310E0,-1.175450012E-1,-3.115879893E-1,-6.607399881E-2,3.395138815E-1
5.825789154E0,-1.930440068E-1,-3.258180022E-1,-5.649299920E-2,3.829031445E-1
5.830799926E0,-2.550390065E-1,-3.253430128E-1,-2.515099943E-2,4.141564240E-1
5.835810705E0,-2.927420139E-1,-2.969779968E-1,1.851399988E-2,4.174165611E-1
5.840821397E0,-2.859559953E-1,-2.721930146E-1,5.520800129E-2,3.986324019E-1
5.845832173E0,-2.547599971E-1,-2.489250004E-1,8.961399645E-2,3.672832427E-1
5.850842943E0,-1.974519938E-1,-2.112859935E-1,1.074889973E-1,3.085173341E-1
5.855853712E0,-1.496630013E-1,-1.712670028E-1,1.136640012E-1,2.542654231E-1
5.860864491E0,-1.062479988E-1,-1.266680062E-1,1.154379994E-1,2.016416443E-1
5.865875260E0,-6.468799710E-2,-8.212199807E-2,1.247460023E-1,1.627578711E-1
5.870886030E0,-1.295700017E-2,-9.762999602E-3,1.011760011E-1,1.024684499E-1
5.875896814E0,2.576999925E-2,4.826499894E-2,8.288799971E-2,9.931779035E-2
5.880907584E0,6.816499680E-2,9.242899716E-2,5.776600167E-2,1.285554248E-1
5.885918138E0,9.771700203E-2,1.566839963E-1,8.076599985E-2,2.015480933E-1
5.890928905E0,9.677399695E-2,1.825029999E-1,9.915400296E-2,2.291376612E-1
5.895939664E0,8.523199707E-2,1.921910048E-1,9.609600157E-2,2.311629666E-1
5.900950433E0,4.032199830E-2,1.839829981E-1,6.205900013E-2,1.983101779E-1
5.905961433E0,-9.806999937E-3,1.542019993E-1,7.077299803E-2,1.699507314E-1
5.910972185E0,-3.768000007E-2,1.174189970E-1,1.147510037E-1,1.684482001E-1
5.915982723E0,-6.972099841E-2,8.575599641E-2,2.034969926E-1,2.315731732E-1
5.920993490E0,-6.339800358E-2,2.557899989E-2,2.436230034E-1,2.530331201E-1
5.926004260E0,-6.358300149E-2,-2.322099917E-2,2.498420030E-1,2.588494530E-1
5.931015024E0,-6.291399896E-2,-7.569299638E-2,2.008700073E-1,2.236880882E-1
5.936025793E0,-8.739200234E-2,-1.297030002E-1,1.494929940E-1,2.163524568E-1
5.941036562E0,-1.461780071E-1,-1.645389944E-1,9.843800217E-2,2.411039832E-1
5.946047303E0,-2.319169939E-1,-1.621350050E-1,8.874300122E-2,2.965612452E-1
5.951058072E0,-3.022939861E-1,-1.144400015E-1,7.045499980E-2,3.308203062E-1
5.956068836E0,-3.157469928E-1,-7.439800352E-2,1.464099996E-2,3.247238601E-1
5.961079605E0,-2.481739968E-1,-3.477999941E-2,-1.934999973E-2,2.513451880E-1
5.966090370E0,-1.472560018E-1,-3.163000103E-3,-1.510169953E-1,2.109513392E-1
5.971101064E0,-2.098900080E-2,1.801300049E-2,-3.398329914E-1,3.409566957E-1
5.976111831E0,4.301499948E-2,6.720600277E-2,-4.540419877E-1,4.610000689E-1
5.981122663E0,1.137019992E-1,1.282600015E-1,-5.202260017E-1,5.477352148E-1
5.986133358E0,1.743959934E-1,1.848939955E-1,-5.815690160E-1,6.346828125E-1
5.991144125E0,2.577939928E-1,2.125190049E-1,-5.813170075E-1,6.704860427E-1
5.996154894E0,3.375580013E-1,2.292969972E-1,-5.079259872E-1,6.515453366E-1
6.001165663E0,3.770970106E-1,1.992149949E-1,-3.808850050E-1,5.718060481E-1
6.006176438E0,4.085760117E-1,1.144569963E-1,-2.531700134E-1,4.940949474E-1
6.011187207E0,3.960799873E-1,-2.911000047E-3,-1.747310013E-1,4.329188758E-1
6.016197961E0,3.459450006E-1,-8.941800147E-2,-1.209900007E-1,3.772427636E-1
6.021208730E0,2.683840096E-1,-1.507650018E-1,-6.522700191E-2,3.146658929E-1
6.026219500E0,1.775819957E-1,-1.436849982E-1,-2.020000014E-3,2.284399796E-1
6.031230031E0,7.811299711E-2,-1.308400035E-1,6.632799655E-2,1.661931104E-1
6.036240798E0,4.966000095E-3,-1.082689986E-1,1.183589995E-1,1.604857937E-1
6.041251798E0,-4.995400086E-2,-8.146499842E-2,1.588920057E-1,1.854147180E-1
6.046262343E0,-7.803999633E-2,-5.795000121E-2,1.830549985E-1,2.072620953E-1
6.051273110E0,-9.921099991E-2,-3.305400163E-2,2.361949980E-1,2.583088590E-1
6.056283884E0,-1.181560010E-1,-3.275299817E-2,2.727580070E-1,2.990493770E-1
6.061294653E0,-1.279879957E-1,-4.253400117E-2,3.213540018E-1,3.485089135E-1
6.066305653E0,-1.496029943E-1,-4.840299860E-2,3.487150073E-1,3.825258978E-1
6.071316411E0,-1.406870037E-1,-7.391499728E-2,3.450070024E-1,3.798500908E-1
6.076327180E0,-1.323399991E-1,-9.072300047E-2,3.223040104E-1,3.600339057E-1
6.081337689E0,-1.128309965E-1,-9.883099794E-2,3.020969927E-1,3.372847357E-1
6.086348457E0,-1.103489995E-1,-8.889900148E-2,2.917320132E-1,3.243262273E-1
6.091359226E0,-1.007710025E-1,-7.053899765E-2,2.840799987E-1,3.095674253E-1
6.096370004E0,-7.910600305E-2,-5.551800132E-2,2.384469956E-1,2.572877337E-1
6.101380773E0,-7.092499733E-2,-3.908199817E-2,1.693399996E-1,1.877066682E-1
6.106391559E0,-3.162899986E-2,-2.132200077E-2,7.901500165E-2,8.774048003E-2
6.111402253E0,5.799999926E-4,9.544000030E-3,-2.288700081E-2,2.480401465E-2
6.116413020E0,3.479199857E-2,3.043599986E-2,-6.731700152E-2,8.166034500E-2
6.121423789E0,7.558699697E-2,4.120299965E-2,-1.571670026E-1,1.791997433E-1
6.126434559E0,1.110849977E-1,5.404800177E-2,-2.230920047E-1,2.550119718E-1
6.131445328E0,9.934099764E-2,7.851400226E-2,-2.624709904E-1,2.914174037E-1
6.136456121E0,6.681100279E-2,8.400599658E-2,-2.849990129E-1,3.045408921E-1
6.141466890E0,2.975299954E-2,6.896200031E-2,-2.742710114E-1,2.843687503E-1
6.146477674E0,-1.239900012E-2,3.203700110E-2,-1.876399964E-1,1.907586771E-1
6.151488444E0,-5.507899821E-2,-2.628999995E-3,-4.435199872E-2,7.076515721E-2
6.156499224E0,-6.259900331E-2,-4.278299958E-2,7.196699828E-2,1.045383619E-1
6.161510068E0,-5.852999911E-2,-8.427599818E-2,1.328639984E-1,1.678721142E-1
6.166520763E0,-4.074100032E-2,-1.112719998E-1,1.577010006E-1,1.972584412E-1
6.171531544E0,-2.799399942E-2,-1.220330000E-1,1.563210040E-1,2.002797378E-1
6.176542084E0,-1.092499960E-2,-1.031569988E-1,1.313579977E-1,1.673787488E-1
6.181552847E0,8.036999963E-3,-4.615300149E-2,9.747800231E-2,1.081510696E-1
6.186563616E0,3.821999952E-2,1.531799976E-2,3.553799912E-2,5.439079758E-2
6.191574385E0,6.069200113E-2,7.454600185E-2,-1.865899935E-2,9.792233479E-2
6.196585140E0,9.213600308E-2,1.085579991E-1,-7.258900255E-2,1.598219182E-1
6.201595910E0,1.416050047E-1,1.390600055E-1,-1.335739940E-1,2.392314243E-1
6.206606679E0,1.736409962E-1,1.527000070E-1,-1.659329981E-1,2.846089379E-1
6.211617472E0,2.050680071E-1,1.478790045E-1,-1.818529963E-1,3.114347440E-1
6.216628241E0,1.967290044E-1,1.138110012E-1,-1.885730028E-1,2.953218965E-1
6.221639011E0,1.731979996E-1,5.135799944E-2,-1.958049983E-1,2.664109392E-1
6.226649781E0,1.370390058E-1,-1.559500024E-2,-2.202579975E-1,2.598778148E-1
6.231660551E0,1.230999976E-1,-5.909899995E-2,-2.212249935E-1,2.599746121E-1
6.236671329E0,1.051639989E-1,-7.035599649E-2,-2.008440048E-1,2.373768042E-1
6.241682098E0,7.177799940E-2,-8.759500086E-2,-1.973219961E-1,2.275102976E-1
6.246692867E0,3.468599916E-2,-9.448199719E-2,-1.842540056E-1,2.099511965E-1
6.251703607E0,-1.109100040E-2,-1.098800004E-1,-1.450079978E-1,1.822743651E-1
6.256714376E0,-6.124399975E-2,-8.682599664E-2,-5.547399819E-2,1.198621945E-1
6.261725145E0,-1.179570034E-1,-6.165099889E-2,2.469100058E-2,1.353674474E-1
6.266735929E0,-1.417610049E-1,-4.584199935E-2,1.597239971E-1,2.184248765E-1
6.271746698E0,-1.497779936E-1,-2.549800090E-2,3.018299937E-1,3.379126226E-1
6.276757491E0,-1.121480018E-1,-1.263500005E-2,4.316380024E-1,4.461481622E-1
6.281768186E0,-6.251300126E-2,9.062999859E-3,5.779650211E-1,5.814065522E-1
6.286778953E0,-3.536599874E-2,1.803800091E-2,6.836580038E-1,6.848097469E-1
6.291789727E0,-2.916499972E-2,2.414999995E-3,7.130900025E-1,7.136902557E-1
6.296800496E0,-3.804299980E-2,-3.765200078E-2,6.592429876E-1,6.614123220E-1
6.301811265E0,-3.077599965E-2,-6.477300078E-2,5.008620024E-1,5.059698106E-1
6.306822035E0,-2.156100050E-2,-1.048590019E-1,2.952879965E-1,3.140943933E-1
6.311832804E0,-6.393700093E-2,-1.363089979E-1,6.910999864E-2,1.656631368E-1
6.316843348E0,-1.175130010E-1,-1.238439977E-1,-1.105360016E-1,2.033835018E-1
6.321854346E0,-1.499699950E-1,-1.101939976E-1,-2.559379935E-1,3.164458454E-1
6.326864887E0,-1.531530023E-1,-8.321399987E-2,-3.554489911E-1,3.958843229E-1
6.331875871E0,-1.076970026E-1,-1.955899969E-2,-3.758229911E-1,3.914385258E-1
6.336886411E0,-4.775699973E-2,5.678400025E-2,-3.554539979E-1,3.631152686E-1
6.341897179E0,1.913700067E-2,1.435540020E-1,-2.944549918E-1,3.281428325E-1
6.346907924E0,8.808799833E-2,2.264409959E-1,-2.120050043E-1,3.224610704E-1
6.351918693E0,2.034350038E-1,2.514330149E-1,-1.636690050E-1,3.624802132E-1
6.356929438E0,3.368430138E-1,1.912740022E-1,-2.144100070E-1,4.427421495E-1
6.361940438E0,-5.625199899E-2,-1.479469985E-1,-2.311872959E0,2.317284873E0
6.366950950E0,-1.140279993E-1,-1.075690016E-1,-2.130239964E0,2.135999948E0
6.371961717E0,-8.699300140E-2,-2.261800021E-1,-1.885841012E0,1.901347285E0
6.376972481E0,-8.418899775E-2,-7.152800262E-2,-1.650468946E0,1.654161958E0
6.381983251E0,9.459400177E-2,1.600210071E-1,-1.249068022E0,1.262824481E0
6.386994020E0,1.765950024E-1,2.770929933E-1,-6.630650163E-1,7.400145523E-1
6.392004799E0,1.335459948E-1,2.828559875E-1,-1.842059940E-1,3.630067364E-1
6.397015568E0,1.236239970E-1,2.595160007E-1,1.760669947E-1,3.370920258E-1
6.402026338E0,1.233870015E-1,2.009570003E-1,3.871510029E-1,4.533144241E-1
6.407037108E0,8.629699796E-2,1.137069985E-1,4.830090106E-1,5.036607565E-1
6.412047868E0,3.944000229E-3,1.207000017E-2,5.643969774E-1,5.645398021E-1
6.417058560E0,-5.587400123E-2,-4.040100053E-2,7.701060176E-1,7.731865384E-1
6.422069328E0,-3.469799832E-2,-1.635799929E-2,1.170390010E0,1.171018493E0
6.427080174E0,-3.784599900E-2,1.850800030E-2,1.614671946E0,1.615221458E0
6.432090868E0,-6.024000049E-2,5.586799979E-2,1.962138057E0,1.963857389E0
6.437101635E0,-9.655699879E-2,9.028399736E-2,2.124521017E0,2.128629608E0
6.442112405E0,-5.565400049E-2,9.018299729E-2,2.192919016E0,2.195478114E0
6.447123193E0,9.114699811E-2,-1.646829993E-1,1.961575031E0,1.970584905E0
6.452133962E0,2.382300049E-2,-2.903069854E-1,1.200592995E0,1.235422689E0
6.457144717E0,-1.975789964E-1,-4.079110026E-1,2.464880049E-1,5.159313738E-1
6.462155487E0,-4.904749990E-1,-4.799140096E-1,-6.746950150E-1,9.623391005E-1
6.467166257E0,-7.089840174E-1,-5.078809857E-1,-1.483219981E0,1.720622836E0
