"Time (s)","Linear Acceleration x (m/s^2)","Linear Acceleration y (m/s^2)","Linear Acceleration z (m/s^2)","Absolute acceleration (m/s^2)"
4.652123600E-2,-2.606120110E0,-1.519519985E-1,-3.220700100E-2,2.610744860E0
5.153231500E-2,-2.508975983E0,-2.216659933E-1,6.395900249E-2,2.519560884E0
5.654345300E-2,-2.416804075E0,-2.659139931E-1,1.479749978E-1,2.435887680E0
6.155476100E-2,-2.340940952E0,-3.065890074E-1,2.089159936E-1,2.370157643E0
6.656585300E-2,-2.294744015E0,-3.487229943E-1,2.568599880E-1,2.335259059E0
7.157700500E-2,-2.235431910E0,-4.093990028E-1,2.502770126E-1,2.286351230E0
7.658831300E-2,-2.165607929E0,-4.670220017E-1,2.606360018E-1,2.230672181E0
8.159939700E-2,-2.094785929E0,-5.265700221E-1,2.479359955E-1,2.174138067E0
8.661054800E-2,-2.053164959E0,-5.835890174E-1,2.036249936E-1,2.144184140E0
9.162162700E-2,-2.003087044E0,-6.094350219E-1,1.592289954E-1,2.099791091E0
9.663292800E-2,-1.914919019E0,-5.945349932E-1,1.126009971E-1,2.008249410E0
1.016440840E-1,-1.815351963E0,-5.606369972E-1,5.013699830E-2,1.900613141E0
1.066551800E-1,-1.737138033E0,-5.366190076E-1,-2.550200000E-2,1.818312090E0
1.116664860E-1,-1.679674983E0,-5.081660151E-1,-1.000880003E-1,1.757713957E0
1.166775830E-1,-1.621431947E0,-4.896000028E-1,-1.715150028E-1,1.702400399E0
1.216887350E-1,-1.567101955E0,-4.808329940E-1,-2.330970019E-1,1.655700190E0
1.267000430E-1,-1.518805981E0,-4.698410034E-1,-2.852309942E-1,1.615202432E0
1.317111410E-1,-1.483376026E0,-4.708699882E-1,-3.261339962E-1,1.590121494E0
1.367222930E-1,-1.462779045E0,-4.573079944E-1,-3.188639879E-1,1.565416040E0
1.417336160E-1,-1.440269947E0,-4.794130027E-1,-3.184719980E-1,1.551012173E0
1.467446940E-1,-1.425147057E0,-4.894129932E-1,-3.293760121E-1,1.542419453E0
1.517558410E-1,-1.405825973E0,-4.993619919E-1,-3.464089930E-1,1.531570519E0
1.567669200E-1,-1.393875957E0,-5.116680264E-1,-3.695150018E-1,1.530109698E0
1.617782400E-1,-1.382256985E0,-5.073320270E-1,-4.100019932E-1,1.528437696E0
1.667893190E-1,-1.354737043E0,-5.173130035E-1,-4.326770008E-1,1.513319063E0
1.718004910E-1,-1.328070998E0,-5.175840259E-1,-4.380210042E-1,1.491149959E0
1.768117980E-1,-1.288172960E0,-5.464429855E-1,-4.452199936E-1,1.468404016E0
1.818228770E-1,-1.251796961E0,-5.704230070E-1,-4.541890025E-1,1.448677220E0
1.868340480E-1,-1.206992984E0,-6.253139973E-1,-4.439300001E-1,1.430008218E0
1.918453560E-1,-1.149489999E0,-6.705549955E-1,-4.403820038E-1,1.401751607E0
1.968564350E-1,-1.095916033E0,-7.109349966E-1,-4.316079915E-1,1.375771049E0
2.018675820E-1,-1.029885054E0,-7.487040162E-1,-3.873960078E-1,1.330900670E0
2.068786610E-1,-1.023172975E0,-8.342019916E-1,-3.762190044E-1,1.372704133E0
2.118899660E-1,-1.016072989E0,-9.197559953E-1,-3.899669945E-1,1.424931460E0
2.169011220E-1,-9.695590138E-1,-9.767069817E-1,-3.928779960E-1,1.431207298E0
2.219121990E-1,-9.105269909E-1,-1.017060041E0,-3.921490014E-1,1.420299746E0
2.269235090E-1,-8.589119911E-1,-1.051095963E0,-4.093450010E-1,1.417778495E0
2.319345880E-1,-8.153240085E-1,-1.059044957E0,-4.278419912E-1,1.403345371E0
2.369457260E-1,-7.718840241E-1,-1.083956003E0,-4.235660136E-1,1.396486209E0
2.419570330E-1,-7.188689709E-1,-1.094694018E0,-4.324580133E-1,1.379183644E0
2.469681120E-1,-6.777349710E-1,-1.105589032E0,-4.426079988E-1,1.370238534E0
2.519792690E-1,-6.364489794E-1,-1.109493017E0,-4.514349997E-1,1.356405403E0
2.569903480E-1,-6.212059855E-1,-1.111184001E0,-4.804109931E-1,1.360669498E0
2.620016540E-1,-6.200929880E-1,-1.127378941E0,-5.176849961E-1,1.386901707E0
2.670128100E-1,-6.236079931E-1,-1.148537040E0,-5.606889725E-1,1.422109836E0
2.720241150E-1,-6.340889931E-1,-1.191341996E0,-5.929620266E-1,1.474099240E0
2.770351940E-1,-6.683470011E-1,-1.243839025E0,-6.072149873E-1,1.537053440E0
2.820463410E-1,-6.953349710E-1,-1.294069052E0,-5.914139748E-1,1.583627457E0
2.870574200E-1,-7.247269750E-1,-1.344426990E0,-5.407109857E-1,1.620210322E0
2.920687360E-1,-7.398549914E-1,-1.356631994E0,-5.052959919E-1,1.625779756E0
2.970798920E-1,-7.480499744E-1,-1.414427996E0,-4.612300098E-1,1.665208228E0
3.020909640E-1,-7.563679814E-1,-1.527384043E0,-3.964270055E-1,1.749899685E0
3.071022690E-1,-7.767699957E-1,-1.669170976E0,-3.347420096E-1,1.871244395E0
3.121133480E-1,-7.805399895E-1,-1.835000038E0,-2.736650109E-1,2.012799134E0
3.171244900E-1,-7.796229720E-1,-2.008131981E0,-1.914010048E-1,2.162646614E0
3.221357980E-1,-7.667930126E-1,-2.205327034E0,-1.642269939E-1,2.340600213E0
3.271469540E-1,-7.587659955E-1,-2.426568985E0,-1.752759963E-1,2.548467098E0
3.321580310E-1,-7.314440012E-1,-2.674190998E0,-1.982879937E-1,2.779501025E0
3.371693360E-1,-7.135509849E-1,-2.926599979E0,-2.502369881E-1,3.022707561E0
3.421804820E-1,-6.740130186E-1,-3.171763897E0,-2.787350118E-1,3.254546508E0
3.471915590E-1,-6.295930147E-1,-3.404860020E0,-3.102219999E-1,3.476448879E0
3.522028650E-1,-5.562710166E-1,-3.628226042E0,-3.137210011E-1,3.684003599E0
3.572139440E-1,-4.900150001E-1,-3.837059021E0,-3.107729852E-1,3.880685053E0
3.622250960E-1,-4.260039926E-1,-4.024130821E0,-3.541570008E-1,4.062085111E0
3.672361750E-1,-3.714810014E-1,-4.194204807E0,-3.888379931E-1,4.228539592E0
3.722474800E-1,-3.168770075E-1,-4.342448235E0,-4.389820099E-1,4.376068202E0
3.772586360E-1,-2.694349885E-1,-4.487978935E0,-4.736090004E-1,4.520935260E0
3.822697080E-1,-2.148420066E-1,-4.618809223E0,-5.405629873E-1,4.655294198E0
3.872810140E-1,-1.339509934E-1,-4.737308025E0,-5.896959901E-1,4.775748272E0
3.922921700E-1,-8.180399984E-2,-4.833870888E0,-5.900890231E-1,4.870441942E0
3.973032330E-1,-2.478200011E-2,-4.891722202E0,-6.231539845E-1,4.931316370E0
4.023145380E-1,3.710100055E-2,-4.939558983E0,-6.481080055E-1,4.982034064E0
4.073256210E-1,7.997400314E-2,-4.965393066E0,-6.698049903E-1,5.011004178E0
4.123367730E-1,1.062809974E-1,-4.976380825E0,-6.834740043E-1,5.024221182E0
4.173480680E-1,9.681499749E-2,-4.953361988E0,-7.014560103E-1,5.003719483E0
4.223591470E-1,1.017699987E-1,-4.927434921E0,-6.162019968E-1,4.966857853E0
4.273702990E-1,8.992400020E-2,-4.898604870E0,-5.738430023E-1,4.932921223E0
4.323816060E-1,1.043509990E-1,-4.828579903E0,-4.980300069E-1,4.855317384E0
4.373926850E-1,9.473600239E-2,-4.734116077E0,-3.888790011E-1,4.751005875E0
4.424038370E-1,6.334300339E-2,-4.591304779E0,-2.440849990E-1,4.598224592E0
4.474151450E-1,3.893499821E-2,-4.390572071E0,-8.278699964E-2,4.391525103E0
4.524262280E-1,9.472999722E-3,-4.160642147E0,5.924199894E-2,4.161074672E0
4.574373050E-1,-1.554599963E-2,-3.894345045E0,1.724449992E-1,3.898192182E0
4.624484560E-1,-4.547299817E-2,-3.615583897E0,2.569980025E-1,3.624991404E0
4.674597550E-1,-7.559999824E-2,-3.362646103E0,3.296549916E-1,3.379611899E0
4.724709110E-1,-1.035420001E-1,-3.133151054E0,3.615669906E-1,3.155643700E0
4.774819920E-1,-1.460669935E-1,-2.929488897E0,3.456169963E-1,2.953420369E0
4.824932980E-1,-1.936649978E-1,-2.766030073E0,3.176290095E-1,2.790934733E0
4.875043770E-1,-2.488549948E-1,-2.630827904E0,2.870329916E-1,2.658114408E0
4.925155280E-1,-3.213810027E-1,-2.523896933E0,2.323430032E-1,2.554862960E0
4.975266070E-1,-3.850429952E-1,-2.450032949E0,1.416359991E-1,2.484145792E0
5.025379130E-1,-4.662629962E-1,-2.397299051E0,3.632000089E-2,2.442491160E0
5.075490740E-1,-5.243390203E-1,-2.358526945E0,-1.052379981E-1,2.418399428E0
5.125601510E-1,-5.903549790E-1,-2.328952074E0,-2.496729940E-1,2.415548254E0
5.175714570E-1,-6.547070146E-1,-2.320570946E0,-3.971849978E-1,2.443654376E0
5.225826020E-1,-7.269250154E-1,-2.340624094E0,-5.337929726E-1,2.508361231E0
5.275936790E-1,-7.973260283E-1,-2.334100008E0,-6.045510173E-1,2.539534126E0
5.326049850E-1,-8.539959788E-1,-2.293889999E0,-6.599900126E-1,2.535118790E0
5.376161460E-1,-9.137110114E-1,-2.260699034E0,-6.714190245E-1,2.529116731E0
5.426272230E-1,-9.333639741E-1,-2.179522038E0,-6.699479818E-1,2.463800909E0
5.476385290E-1,-9.561370015E-1,-2.088689089E0,-6.221590042E-1,2.379895355E0
5.526496180E-1,-9.245190024E-1,-1.954723954E0,-5.519520044E-1,2.231665777E0
5.576607690E-1,-8.672549725E-1,-1.799196005E0,-4.809449911E-1,2.054396635E0
5.626718240E-1,-7.914890051E-1,-1.612555981E0,-3.755899966E-1,1.835172875E0
5.676831300E-1,-6.972789764E-1,-1.401988029E0,-2.549239993E-1,1.586428269E0
5.726942850E-1,-6.011599898E-1,-1.203372955E0,-1.667290032E-1,1.355469794E0
5.777055910E-1,-5.097650290E-1,-1.013110995E0,-6.012199819E-2,1.135723967E0
5.827166700E-1,-4.269270003E-1,-8.118789792E-1,2.447899990E-2,9.176128606E-1
5.877278210E-1,-3.842499852E-1,-6.472820044E-1,9.761899710E-2,7.590464498E-1
5.927391290E-1,-3.592750132E-1,-5.310900211E-1,1.553570032E-1,6.597506681E-1
5.977502080E-1,-3.880839944E-1,-4.627990127E-1,1.706829965E-1,6.276342869E-1
6.027613560E-1,-4.525240064E-1,-4.351040125E-1,1.987349987E-1,6.584748118E-1
6.077724350E-1,-5.327619910E-1,-4.453420043E-1,2.070070058E-1,7.245803891E-1
6.127837500E-1,-6.259980202E-1,-4.885329902E-1,2.057110071E-1,8.202774057E-1
6.177948280E-1,-7.064110041E-1,-5.478839874E-1,1.998829991E-1,9.160494439E-1
6.228062110E-1,-7.609459758E-1,-5.542669892E-1,2.056040019E-1,9.635993353E-1
6.278172900E-1,-7.975320220E-1,-5.174880028E-1,2.221949995E-1,9.763307723E-1
6.328283670E-1,-8.217989802E-1,-4.070039988E-1,2.813369930E-1,9.592477900E-1
6.378395290E-1,-8.387590051E-1,-2.592679858E-1,3.955079913E-1,9.628931032E-1
6.428506080E-1,-8.950340152E-1,-1.073300019E-1,4.680269957E-1,1.015704133E0
6.478619130E-1,-9.456310272E-1,7.508499920E-2,5.348820090E-1,1.089015409E0
6.528730640E-1,-9.791830182E-1,2.784650028E-1,5.870169997E-1,1.175130248E0
6.578841410E-1,-1.042639017E0,4.771670103E-1,5.620229840E-1,1.276970755E0
6.628954330E-1,-1.151290059E0,6.290649772E-1,4.410899878E-1,1.384106904E0
6.679065120E-1,-1.297050953E0,7.754660249E-1,2.354670018E-1,1.529422584E0
6.729176490E-1,-1.466598988E0,9.165040255E-1,9.163999930E-3,1.729443898E0
6.779289560E-1,-1.642480016E0,9.951000214E-1,-2.380740047E-1,1.935108236E0
6.829400350E-1,-1.791152000E0,1.032554984E0,-4.877740145E-1,2.124221922E0
6.879511870E-1,-1.891216993E0,1.038241982E0,-7.356719971E-1,2.279443225E0
6.929624950E-1,-1.930994987E0,1.007172942E0,-9.846069813E-1,2.390102484E0
6.979735740E-1,-1.875012040E0,9.344040155E-1,-1.153455973E0,2.391493612E0
7.029847260E-1,-1.694967031E0,8.413869739E-1,-1.196728945E0,2.238974195E0
7.079960330E-1,-1.436472058E0,6.946790218E-1,-1.126085043E0,1.952971695E0
7.130071940E-1,-1.118783951E0,5.374240279E-1,-9.316099882E-1,1.551901828E0
7.180182710E-1,-7.322369814E-1,4.143800139E-1,-6.167309880E-1,1.043186898E0
7.230295720E-1,-3.000000119E-1,3.431630135E-1,-4.083870053E-1,6.119973914E-1
7.280406510E-1,3.970900178E-2,3.377870023E-1,1.460320055E-1,3.701380964E-1
7.330517280E-1,1.812720001E-1,3.369950056E-1,3.901070058E-1,5.464509565E-1
7.380628650E-1,3.931359947E-1,3.656849861E-1,5.188959837E-1,7.466823028E-1
7.430741720E-1,5.225700140E-1,3.454959989E-1,6.385239959E-1,8.945165164E-1
7.480852600E-1,5.373129845E-1,2.767939866E-1,7.774930000E-1,9.847921199E-1
7.530964120E-1,4.941189885E-1,1.767809987E-1,8.959479928E-1,1.038329380E0
7.581077200E-1,3.574000001E-1,7.291299850E-2,9.199349880E-1,9.896117661E-1
7.631189000E-1,1.622679979E-1,-2.963999985E-3,8.752229810E-1,8.901432215E-1
7.681299770E-1,-4.119100049E-2,-3.633999825E-2,8.078240156E-1,8.096894060E-1
7.731412780E-1,-2.206770033E-1,-2.983699925E-2,7.294009924E-1,7.626364757E-1
7.781523570E-1,-3.864980042E-1,1.382500026E-2,6.678400040E-1,7.717396639E-1
7.831635180E-1,-5.555909872E-1,7.537499815E-2,6.108000278E-1,8.291196593E-1
7.881748260E-1,-6.910330057E-1,1.429049969E-1,5.277360082E-1,8.811661293E-1
7.931859050E-1,-7.757610083E-1,2.736009955E-1,4.257389903E-1,9.262377311E-1
7.981970620E-1,-7.879989743E-1,4.407480061E-1,3.163020015E-1,9.566860219E-1
8.032081410E-1,-7.737900019E-1,5.945090055E-1,1.458500028E-1,9.866428675E-1
8.082194410E-1,-7.336639762E-1,7.727180123E-1,-1.026200037E-2,1.065580248E0
8.132305970E-1,-7.190729976E-1,9.339029789E-1,-2.253919989E-1,1.200017626E0
8.182416690E-1,-6.469159722E-1,1.063742042E0,-4.080330133E-1,1.310167297E0
8.232529750E-1,-5.645830035E-1,1.128669024E0,-5.920150280E-1,1.393961809E0
8.282641210E-1,-5.052859783E-1,1.130936027E0,-7.849869728E-1,1.466470171E0
8.332751980E-1,-4.279069901E-1,1.053725958E0,-9.633160233E-1,1.490443071E0
8.382865030E-1,-4.064059854E-1,8.970100284E-1,-1.081637025E0,1.462782099E0
8.432976550E-1,-4.095869958E-1,7.468479872E-1,-1.171288013E0,1.448260693E0
8.483087320E-1,-4.590460062E-1,6.127769947E-1,-1.217970014E0,1.438634712E0
8.533200380E-1,-4.783309996E-1,5.522869825E-1,-1.171169043E0,1.380383419E0
8.583311310E-1,-4.921520054E-1,5.335059762E-1,-1.024242997E0,1.255354906E0
8.633422830E-1,-4.926550090E-1,5.464299917E-1,-8.663849831E-1,1.136625546E0
8.683533480E-1,-4.687210023E-1,5.549250245E-1,-6.762930155E-1,9.924784147E-1
8.733646530E-1,-4.562300146E-1,5.593709946E-1,-5.126600266E-1,8.853598356E-1
8.783758130E-1,-4.369579852E-1,5.603169799E-1,-4.142850041E-1,8.225080324E-1
8.833871190E-1,-3.302260041E-1,6.003040075E-1,-3.025200069E-1,7.489542508E-1
8.883981890E-1,-1.783210039E-1,6.218649745E-1,-1.959789991E-1,6.759602023E-1
8.934093410E-1,-9.674700350E-2,6.425420046E-1,-1.433189958E-1,6.654025435E-1
8.984204200E-1,-1.162299979E-2,6.122999787E-1,-9.359200299E-2,6.195206382E-1
9.034317250E-1,5.362600088E-2,5.581430197E-1,-1.001520008E-1,5.695873960E-1
9.084427940E-1,8.331999928E-2,5.017110109E-1,-1.080700010E-1,5.199377712E-1
9.134539460E-1,5.085099861E-2,4.436210096E-1,-1.499080062E-1,4.710178707E-1
9.184652540E-1,-1.172100008E-2,4.089519978E-1,-3.090670109E-1,5.127392471E-1
9.234763330E-1,-4.746399820E-2,4.209249914E-1,-4.269869924E-1,6.014553775E-1
9.284874850E-1,-1.656370014E-1,4.133239985E-1,-5.816980004E-1,7.325605147E-1
9.334985630E-1,-3.238790035E-1,3.821699917E-1,-7.932569981E-1,9.381941038E-1
9.385098640E-1,-4.627189934E-1,3.301079869E-1,-1.037093997E0,1.182642849E0
9.435210200E-1,-5.220549703E-1,3.277240098E-1,-1.210551023E0,1.358446981E0
9.485323160E-1,-5.548580289E-1,2.955070138E-1,-1.319851995E0,1.461916932E0
9.535433950E-1,-5.828419924E-1,2.237270027E-1,-1.403730035E0,1.536299636E0
9.585545460E-1,-5.644249916E-1,1.759220064E-1,-1.402207971E0,1.521746141E0
9.635656300E-1,-5.547099710E-1,1.294810027E-1,-1.284450054E0,1.405090895E0
9.685769360E-1,-5.683050156E-1,1.216849983E-1,-1.095793009E0,1.240379034E0
9.735880920E-1,-5.655360222E-1,1.185560003E-1,-8.608549833E-1,1.036801726E0
9.785991690E-1,-4.245859981E-1,1.928360015E-1,-5.811520219E-1,7.451152030E-1
9.836104750E-1,-4.687069952E-1,2.088800073E-1,-5.281500220E-1,7.363827474E-1
9.886215540E-1,-3.150039911E-1,3.472500145E-1,-5.013059974E-1,6.863802081E-1
9.936327050E-1,-5.291000009E-2,5.501620173E-1,-5.073549747E-1,7.502578116E-1
9.986440130E-1,1.127770022E-1,6.639609933E-1,-6.148149967E-1,9.118992998E-1
1.003655082E0,3.378739953E-1,8.202750087E-1,-7.549319863E-1,1.164874341E0
1.008666234E0,4.733310044E-1,9.596179724E-1,-9.239159822E-1,1.413693614E0
1.013677333E0,4.914140105E-1,9.888070226E-1,-1.066737056E0,1.535302903E0
1.018688639E0,4.264200032E-1,9.845319986E-1,-1.188212037E0,1.600932578E0
1.023699794E0,3.220219910E-1,1.009044051E0,-1.300400019E0,1.677172701E0
1.028710871E0,1.907670051E-1,1.028946996E0,-1.415231943E0,1.760115173E0
1.033722177E0,-2.450699918E-2,1.024973989E0,-1.545061946E0,1.854289267E0
1.038733333E0,-1.300400048E-1,1.102305055E0,-1.649441004E0,1.988125364E0
1.043744410E0,-1.521939933E-1,1.157976985E0,-1.695018053E0,2.058436278E0
1.048755716E0,-1.126359999E-1,1.124997973E0,-1.653017998E0,2.002692140E0
1.053766794E0,5.300199986E-2,1.077535987E0,-1.465962052E0,1.820147729E0
1.058777946E0,1.459899992E-1,9.558740258E-1,-1.210140944E0,1.549015602E0
1.063789273E0,2.640289962E-1,8.031579852E-1,-9.785540104E-1,1.293190632E0
1.068800429E0,4.065439999E-1,7.241759896E-1,-6.797329783E-1,1.073194209E0
1.073811506E0,4.533340037E-1,6.503160000E-1,-4.218519926E-1,8.979875959E-1
1.078822812E0,3.093680143E-1,5.170260072E-1,-3.013899922E-1,6.736916118E-1
1.083833895E0,6.330999732E-2,3.754670024E-1,-2.380860001E-1,4.490752377E-1
1.088845047E0,-1.758950055E-1,2.976180017E-1,-2.430450022E-1,4.225948426E-1
1.093856355E0,-3.860780001E-1,3.027189970E-1,-3.250429928E-1,5.885133477E-1
1.098867424E0,-5.129830241E-1,3.591710031E-1,-4.386790097E-1,7.645879060E-1
1.103878501E0,-5.173069835E-1,4.328800142E-1,-5.672299862E-1,8.813293817E-1
1.108889677E0,-5.740439892E-1,2.985360026E-1,-7.951080203E-1,1.025108292E0
1.113900984E0,-7.647400349E-2,8.247489929E-1,-8.607620001E-1,1.194558661E0
1.118912063E0,-1.634199917E-2,1.027245045E0,-8.923879862E-1,1.360829071E0
1.123923230E0,-1.087940037E-1,1.016152978E0,-9.592909813E-1,1.401656947E0
1.128934538E0,-1.772180051E-1,9.541850090E-1,-9.943490028E-1,1.389462195E0
1.133945608E0,-2.364789993E-1,9.058859944E-1,-1.004681945E0,1.373294419E0
1.138956760E0,-2.438620031E-1,9.503620267E-1,-9.013029933E-1,1.332292665E0
1.143968067E0,-6.741199642E-2,1.186014056E0,-6.022660136E-1,1.331877648E0
1.148979237E0,-5.443609953E-1,1.062811017E0,-6.404590011E-1,1.355021728E0
1.153990314E0,-7.382619977E-1,1.011163950E0,-7.360529900E-1,1.452328239E0
1.159001620E0,-6.708070040E-1,1.100332022E0,-7.433540225E-1,1.487712270E0
1.164012699E0,-4.632950127E-1,1.342491031E0,-7.267510295E-1,1.595334289E0
1.169023851E0,-4.931130111E-1,1.558313012E0,-7.818729877E-1,1.811856853E0
1.174035148E0,-4.798470140E-1,1.628191948E0,-9.064379930E-1,1.924290002E0
1.179046227E0,-4.325540066E-1,1.712540030E0,-1.050176024E0,2.054936984E0
1.184057319E0,-5.158810019E-1,1.706027031E0,-1.170305967E0,2.132200154E0
1.189068471E0,-5.935130119E-1,1.713875055E0,-1.295716047E0,2.229014463E0
1.194079779E0,-7.561540008E-1,1.750502944E0,-1.376080990E0,2.351516175E0
1.199090925E0,-8.170940280E-1,1.995399952E0,-1.428135037E0,2.586277886E0
1.204102230E0,-1.113530993E0,2.034612894E0,-1.511744022E0,2.768568383E0
1.209113304E0,-1.284747958E0,1.992375970E0,-1.730083942E0,2.934847487E0
1.214124456E0,-1.371902943E0,2.059837103E0,-1.782225966E0,3.049815727E0
1.219135535E0,-1.356338024E0,2.203291893E0,-1.797742963E0,3.150559912E0
1.224146851E0,-1.355433941E0,2.322184086E0,-1.745677948E0,3.205796562E0
1.229158007E0,-1.276062012E0,2.414020061E0,-1.781777978E0,3.260453937E0
1.234169089E0,-1.010540009E0,2.502774954E0,-1.707391977E0,3.193784736E0
1.239180394E0,-8.621960282E-1,2.416455984E0,-1.804332018E0,3.136599360E0
1.244191482E0,-7.981150150E-1,2.405994892E0,-1.939295053E0,3.191655417E0
1.249202865E0,-4.978779852E-1,2.488071918E0,-1.736771941E0,3.074859531E0
1.254213940E0,-3.487789929E-1,2.418879986E0,-1.545583963E0,2.891618398E0
1.259225017E0,-3.483060002E-1,2.279973030E0,-1.396379948E0,2.696195662E0
1.264236169E0,-3.792569935E-1,2.145616055E0,-1.217133999E0,2.495780297E0
1.269247228E0,-4.822700024E-1,1.996778011E0,-1.007565975E0,2.287989505E0
1.274258533E0,-5.951219797E-1,1.843122959E0,-7.578629851E-1,2.079814587E0
1.279269694E0,-7.130290270E-1,1.687136054E0,-5.203869939E-1,1.904111625E0
1.284280771E0,-8.573780060E-1,1.497804046E0,-3.116779923E-1,1.753755164E0
1.289292072E0,-1.025753975E0,1.366106033E0,-1.363579929E-1,1.713770817E0
1.294303151E0,-1.132073998E0,1.296874046E0,-1.429000054E-3,1.721474912E0
1.299314303E0,-1.166787028E0,1.256605029E0,7.398500293E-2,1.716368827E0
1.304325601E0,-1.151579976E0,1.195052028E0,1.761589944E-1,1.668927135E0
1.309336680E0,-1.093742013E0,1.093127966E0,1.976779997E-1,1.558934550E0
1.314347816E0,-9.790530205E-1,1.001073956E0,7.643999904E-2,1.402332684E0
1.319359124E0,-8.793870211E-1,9.163789749E-1,-8.263300359E-2,1.272752989E0
1.324370213E0,-7.421740294E-1,9.298850298E-1,-1.936389953E-1,1.205406371E0
1.329381365E0,-5.840950012E-1,9.649000168E-1,-2.953659892E-1,1.165950291E0
1.334392444E0,-4.121440053E-1,9.997950196E-1,-3.092780113E-1,1.124769154E0
1.339403744E0,-2.499430031E-1,9.819679856E-1,-2.474559993E-1,1.043056615E0
1.344414900E0,-1.311320066E-1,8.937249780E-1,-1.326600015E-1,9.129833599E-1
1.349425963E0,-2.632299997E-2,7.804669738E-1,2.613900043E-2,7.813480945E-1
1.354437269E0,4.158800095E-2,6.740779877E-1,1.067290008E-1,6.837410145E-1
1.359448424E0,8.273600042E-2,6.013510227E-1,1.225420013E-1,6.192615283E-1
1.364459501E0,9.314899892E-2,5.600559711E-1,1.239480004E-1,5.811217890E-1
1.369470806E0,9.442500025E-2,5.335800052E-1,9.715399891E-2,5.505112189E-1
1.374481953E0,6.350500137E-2,5.005589724E-1,6.152100116E-2,5.083079810E-1
1.379493030E0,6.410700083E-2,4.411880076E-1,1.104179993E-1,4.592915198E-1
1.384504336E0,7.218799740E-2,3.530640006E-1,1.719930023E-1,3.993080119E-1
1.389515439E0,8.990799636E-2,2.647340000E-1,2.622390091E-1,3.833234098E-1
1.394526591E0,7.536700368E-2,1.620630026E-1,3.595699966E-1,4.015410122E-1
1.399537893E0,1.290700026E-2,1.247529984E-1,3.566240072E-1,3.780351621E-1
1.404548972E0,-1.009059995E-1,1.291220039E-1,3.278320134E-1,3.665083104E-1
1.409560124E0,-2.341530025E-1,9.132400155E-2,3.437629938E-1,4.258411649E-1
1.414571432E0,-3.373000026E-1,-2.197200060E-2,3.269340098E-1,4.702551513E-1
1.419582511E0,-3.647289872E-1,-1.896200031E-1,3.346619904E-1,5.300770015E-1
1.424593663E0,-3.089889884E-1,-4.333550036E-1,3.462370038E-1,6.349415854E-1
1.429604736E0,-2.429859936E-1,-5.851489902E-1,2.203530073E-1,6.708181435E-1
1.434616042E0,-2.510850132E-1,-6.615960002E-1,7.880900055E-2,7.120139113E-1
1.439627203E0,-1.788890064E-1,-6.158699989E-1,-4.308000207E-3,6.413389830E-1
1.444638280E0,-1.432089955E-1,-4.334569871E-1,-1.716870070E-1,4.877193911E-1
1.449649586E0,-2.076870054E-1,-2.507160008E-1,-2.734250128E-1,4.251513177E-1
1.454660665E0,-2.176730037E-1,-1.569969952E-1,-2.184329927E-1,3.460383871E-1
1.459671816E0,-1.852129996E-1,-2.074099928E-1,-1.031749994E-1,2.965937303E-1
1.464683138E0,-1.573950052E-1,-3.202059865E-1,-2.182899974E-2,3.574654762E-1
1.469694217E0,-1.475480050E-1,-4.737040102E-1,8.738099784E-2,5.037870005E-1
1.474705374E0,-1.141650006E-1,-5.195620060E-1,1.374990046E-1,5.494399892E-1
1.479716682E0,-1.374270022E-1,-4.812859893E-1,1.254339963E-1,5.160000696E-1
1.484727761E0,-1.722079962E-1,-3.710100055E-1,1.243719980E-1,4.275189025E-1
1.489738926E0,-1.975989938E-1,-2.294850051E-1,1.081660017E-1,3.215720974E-1
1.494750234E0,-2.205870003E-1,-1.668359935E-1,1.189669967E-1,3.010747743E-1
1.499761318E0,-2.041469961E-1,-1.355160028E-1,1.721999943E-1,2.994885993E-1
1.504772470E0,-1.543660015E-1,-5.669299886E-2,2.131929994E-1,2.692474949E-1
1.509783788E0,-9.770199656E-2,2.893400006E-2,2.702249885E-1,2.887982010E-1
1.514794867E0,-8.285299689E-2,8.825399727E-2,3.082689941E-1,3.311844801E-1
1.519806018E0,-7.834500074E-2,1.214800030E-1,3.048770130E-1,3.374097262E-1
1.524817074E0,-9.778399765E-2,1.384129971E-1,2.614459991E-1,3.115668122E-1
1.529828380E0,-1.079410017E-1,1.605370045E-1,2.188429981E-1,2.920884241E-1
1.534839526E0,-1.418289989E-1,2.238530070E-1,1.491509974E-1,3.040915219E-1
1.539850832E0,-1.013019979E-1,3.661809862E-1,1.041620001E-1,3.939547330E-1
1.544861680E0,-1.228540018E-1,5.018280149E-1,-9.925000370E-3,5.167426515E-1
1.549872981E0,-2.807550132E-1,4.687899947E-1,-1.168909967E-1,5.587941855E-1
1.554884136E0,-3.874529898E-1,3.911589980E-1,-1.590459943E-1,5.730801073E-1
1.559895442E0,-3.959980011E-1,4.166930020E-1,-1.382679939E-1,5.912406557E-1
1.564906521E0,-3.672620058E-1,4.638670087E-1,-4.457300156E-2,5.933302075E-1
1.569917673E0,-3.505339921E-1,4.300059974E-1,6.950400025E-2,5.591154116E-1
1.574928762E0,-4.477539957E-1,3.659990132E-1,1.663990021E-1,6.017703434E-1
1.579940068E0,-4.699339867E-1,3.001950085E-1,2.073650062E-1,5.949413759E-1
1.584951223E0,-4.749180079E-1,2.205830067E-1,2.335299999E-1,5.733587340E-1
1.589962300E0,-5.237309933E-1,1.441220045E-1,2.593609989E-1,6.019413869E-1
1.594973683E0,-5.411310196E-1,8.496300131E-2,3.011049926E-1,6.250645635E-1
1.599984757E0,-4.932419956E-1,4.276600108E-2,3.256900012E-1,5.926133427E-1
1.604996063E0,-3.914150000E-1,1.960399933E-2,3.287650049E-1,5.115432019E-1
1.610007137E0,-2.998239994E-1,3.599999938E-3,3.338640034E-1,4.487455442E-1
1.615018288E0,-2.859230042E-1,3.586500138E-2,3.944030106E-1,4.884587981E-1
1.620029381E0,-1.872700006E-1,8.002900332E-2,4.204809964E-1,4.672033420E-1
1.625040687E0,-5.486400053E-2,1.191850007E-1,4.295620024E-1,4.491532443E-1
1.630051829E0,1.428399980E-1,2.201949954E-1,5.198839903E-1,5.823817171E-1
1.635062906E0,1.770070046E-1,2.211319953E-1,5.149809718E-1,5.877382414E-1
1.640074217E0,-1.375939995E-1,1.376700029E-2,5.007709861E-1,5.195124825E-1
1.645085295E0,-8.764999919E-3,-1.818919927E-1,4.331449866E-1,4.698681748E-1
1.650096678E0,2.353370041E-1,-3.833329976E-1,2.809930146E-1,5.303628633E-1
1.655107747E0,3.239139915E-1,-4.362060130E-1,2.980189919E-1,6.196864362E-1
1.660118901E0,2.479240000E-1,-4.807929993E-1,3.286480010E-1,6.329594983E-1
1.665129964E0,2.442629933E-1,-5.439230204E-1,3.307510018E-1,6.818452077E-1
1.670141270E0,2.251839936E-1,-6.591479778E-1,2.864319980E-1,7.531448580E-1
1.675152348E0,1.472260058E-1,-7.808619738E-1,2.086559981E-1,8.215584242E-1
1.680163500E0,8.143799752E-2,-8.662019968E-1,1.215559989E-1,8.784724854E-1
1.685174808E0,3.412400186E-2,-9.296759963E-1,4.158600047E-2,9.312310675E-1
1.690185887E0,-1.160799991E-2,-9.807260036E-1,-6.130000111E-3,9.808138543E-1
1.695197043E0,-1.009000000E-2,-1.045287967E0,-1.144210026E-1,1.051580195E0
1.700208122E0,-6.150399894E-2,-1.111871958E0,-1.778039932E-1,1.127677371E0
1.705219427E0,-7.739000022E-2,-1.151744962E0,-1.078680009E-1,1.159371025E0
1.710230593E0,-5.779099837E-2,-1.095523953E0,4.045300186E-2,1.097792775E0
1.715241670E0,4.087999929E-3,-1.009881973E0,8.666499704E-2,1.013602059E0
1.720252990E0,2.387700044E-2,-9.024689794E-1,8.760000020E-2,9.070248783E-1
1.725264069E0,2.391799912E-2,-8.048059940E-1,7.515999954E-3,8.051964040E-1
1.730275221E0,1.405000035E-2,-6.932070255E-1,-1.070370004E-1,7.015627571E-1
1.735286538E0,-1.463900041E-2,-5.939329863E-1,-2.203509957E-1,6.336602037E-1
1.740297617E0,-1.378000015E-3,-5.001659989E-1,-3.487879932E-1,6.097712600E-1
1.745308783E0,9.388200194E-2,-3.087719977E-1,-3.567990065E-1,4.811023881E-1
1.750319862E0,6.801100075E-2,-3.016510010E-1,-4.202950001E-1,5.217918260E-1
1.755331168E0,-9.331700206E-2,-4.778279960E-1,-4.735989869E-1,6.792081102E-1
1.760342324E0,-3.626210093E-1,-4.170899987E-1,-2.946609855E-1,6.263251231E-1
1.765353401E0,1.918960065E-1,-3.979429901E-1,-4.133679867E-1,6.050254483E-1
1.770364701E0,2.641640007E-1,-5.052649975E-1,-4.013150036E-1,6.972295670E-1
1.775375780E0,2.326859981E-1,-4.889039993E-1,-2.426850051E-1,5.933514186E-1
1.780386932E0,1.908490062E-1,-4.567880034E-1,-1.037700027E-1,5.058130452E-1
1.785398231E0,2.828209996E-1,-5.056009889E-1,-3.320100158E-2,5.802778509E-1
1.790409387E0,2.983410060E-1,-5.635110140E-1,-1.298599970E-2,6.377465444E-1
1.795420464E0,3.182980120E-1,-6.068689823E-1,-2.081100084E-2,6.855922140E-1
1.800431541E0,3.932040036E-1,-6.001679897E-1,-3.241299838E-2,7.182350637E-1
1.805442846E0,4.354639947E-1,-5.456470251E-1,-3.115499951E-2,6.988062684E-1
1.810454007E0,4.621990025E-1,-4.673680067E-1,-4.519100115E-2,6.588649317E-1
1.815465313E0,4.667629898E-1,-3.386259973E-1,-6.184999831E-3,5.766918665E-1
1.820476392E0,4.592149854E-1,-1.862320006E-1,-1.534599997E-2,4.957784390E-1
1.825487544E0,4.282900095E-1,-2.671499923E-2,-6.221999880E-3,4.291674926E-1
1.830498623E0,3.539370000E-1,1.472000033E-1,2.185000107E-3,3.833327734E-1
1.835509928E0,2.770200074E-1,3.138870001E-1,7.664999925E-3,4.187169516E-1
1.840521069E0,1.931709945E-1,4.398050010E-1,-4.011000041E-3,4.803743958E-1
1.845532146E0,1.166390032E-1,5.153880119E-1,-2.106099948E-2,5.288412102E-1
1.850543443E0,4.992299899E-2,5.188199878E-1,-8.347000182E-2,5.278576766E-1
1.855554522E0,-1.888200082E-2,4.979819953E-1,-1.507180035E-1,5.206328017E-1
1.860565659E0,-5.235999823E-2,4.412159920E-1,-1.809439957E-1,4.797435258E-1
1.865576966E0,-4.903399944E-2,3.679820001E-1,-1.752939969E-1,4.105399748E-1
1.870588040E0,-5.388999823E-3,2.878269851E-1,-1.627770066E-1,3.307110046E-1
1.875599192E0,3.338000178E-2,1.675000042E-1,-1.463509947E-1,2.249201849E-1
1.880610500E0,5.327099934E-2,4.783700034E-2,-1.238910034E-1,1.430914348E-1
1.885621656E0,5.927700177E-2,-9.258200228E-2,-1.075730026E-1,1.538087805E-1
1.890632733E0,7.245899737E-2,-2.463770062E-1,-8.360700309E-2,2.700778896E-1
1.895644038E0,1.108750030E-1,-4.061950147E-1,-5.262099952E-2,4.243307977E-1
1.900655185E0,1.458030045E-1,-5.670610070E-1,-2.212700062E-2,5.859234643E-1
1.905666185E0,1.793559939E-1,-7.048879862E-1,1.474300027E-2,7.274977675E-1
1.910677321E0,2.020179927E-1,-8.263940215E-1,8.580199629E-2,8.550440519E-1
1.915688629E0,2.348109931E-1,-8.859660029E-1,1.931979954E-1,9.366949484E-1
1.920699795E0,2.702719867E-1,-8.717659712E-1,3.206799924E-1,9.673978049E-1
1.925711100E0,2.921310067E-1,-8.110949993E-1,3.870269954E-1,9.449896921E-1
1.930722165E0,3.453269899E-1,-7.027699947E-1,3.853369951E-1,8.727089980E-1
1.935733317E0,1.530199945E-1,-5.817210078E-1,4.345940053E-1,7.420824746E-1
1.940744616E0,1.234650016E-1,-4.204629958E-1,4.501619935E-1,6.282344768E-1
1.945755695E0,1.432889998E-1,-2.911159992E-1,4.372479916E-1,5.444869774E-1
1.950766772E0,1.164439991E-1,-2.370329946E-1,3.607699871E-1,4.471004687E-1
1.955777923E0,1.004550010E-1,-2.290879935E-1,2.939350009E-1,3.859667094E-1
1.960789235E0,8.348900080E-2,-2.993350029E-1,3.103350103E-1,4.391806870E-1
1.965800391E0,1.005360037E-1,-4.025329947E-1,3.050149977E-1,5.149509188E-1
1.970811472E0,1.204449981E-1,-5.416749716E-1,2.336699963E-1,6.020967028E-1
1.975822778E0,1.150769964E-1,-6.664860249E-1,1.728640050E-1,6.980890349E-1
1.980833934E0,1.058270037E-1,-7.960709929E-1,1.129089966E-1,8.109727628E-1
1.985845010E0,9.473399818E-2,-8.823170066E-1,9.153500199E-2,8.920966804E-1
1.990856316E0,1.277520061E-1,-8.945950270E-1,8.541499823E-2,9.076984958E-1
1.995867472E0,1.431549937E-1,-8.499289751E-1,9.030400217E-2,8.666183865E-1
2.000878536E0,1.667789966E-1,-7.653210163E-1,9.697499871E-2,7.892627206E-1
2.005889613E0,1.821680069E-1,-6.502490044E-1,1.267780066E-1,6.870819553E-1
2.010900675E0,2.127639949E-1,-5.119060278E-1,1.652770042E-1,5.784745344E-1
2.015911981E0,2.488410026E-1,-3.528259993E-1,2.054910064E-1,4.781574887E-1
2.020923380E0,2.647700012E-1,-1.995860040E-1,2.191720009E-1,3.974595482E-1
2.025934536E0,2.682789862E-1,-4.242499918E-2,2.418960035E-1,3.637130346E-1
2.030945613E0,2.296490073E-1,1.233270019E-1,2.500270009E-1,3.611948465E-1
2.035956698E0,1.711830050E-1,2.596339881E-1,2.623000145E-1,4.068350115E-1
2.040968004E0,1.261399984E-1,3.501929939E-1,2.850829959E-1,4.688483195E-1
2.045979174E0,8.511900157E-2,4.069460034E-1,2.992419899E-1,5.122460958E-1
2.050990480E0,5.985499918E-2,4.062269926E-1,3.067040145E-1,5.125137491E-1
2.056001559E0,5.479399860E-2,3.620040119E-1,2.697480023E-1,4.547672719E-1
2.061012636E0,6.932199746E-2,2.602919936E-1,2.331759930E-1,3.562702696E-1
2.066023788E0,1.518190056E-1,1.295589954E-1,1.565359980E-1,2.536494873E-1
2.071034862E0,1.979999989E-1,-9.180100262E-2,5.569599941E-2,2.252409110E-1
2.076046168E0,2.595899999E-1,-3.168739974E-1,-8.379000239E-3,4.097149081E-1
2.081057323E0,3.402659893E-1,-4.832839966E-1,-3.118900023E-2,5.918759317E-1
2.086068615E0,4.067009985E-1,-5.743389726E-1,-1.734399982E-2,7.039685873E-1
2.091079694E0,4.708440006E-1,-5.949659944E-1,3.821500018E-2,7.596966457E-1
2.096090846E0,5.049890280E-1,-5.576670170E-1,9.813299775E-2,7.587071276E-1
2.101101940E0,5.102779865E-1,-4.300589859E-1,1.521950066E-1,6.844688999E-1
2.106113246E0,4.784019887E-1,-2.748470008E-1,1.963710040E-1,5.856371811E-1
2.111124324E0,4.245719910E-1,-9.497500211E-2,2.242670059E-1,4.894663589E-1
2.116135461E0,3.726960123E-1,8.728499711E-2,2.105389982E-1,4.368611428E-1
2.121146769E0,4.227980077E-1,2.543019950E-1,1.299259961E-1,5.102042968E-1
2.126157867E0,2.542519867E-1,3.644509912E-1,9.542500228E-2,4.545047071E-1
2.131169019E0,3.275600076E-2,4.747509956E-1,4.295700043E-2,4.778145742E-1
2.136180318E0,5.935800076E-2,5.696190000E-1,-9.068500251E-2,5.798387250E-1
2.141191396E0,2.263199911E-2,5.611289740E-1,-2.465129942E-1,6.133079073E-1
2.146202548E0,-8.235199749E-2,4.408090115E-1,-4.092749953E-1,6.071247466E-1
2.151213860E0,-2.186519951E-1,2.738820016E-1,-5.678390265E-1,6.672789565E-1
2.156224939E0,-3.203989863E-1,8.310399950E-2,-6.665459871E-1,7.442078595E-1
2.161236077E0,-4.188460112E-1,-1.111890003E-1,-6.999130249E-1,8.232090969E-1
2.166247156E0,-4.702129960E-1,-2.560879886E-1,-6.922860146E-1,8.751806930E-1
2.171258456E0,-4.829449952E-1,-3.702870011E-1,-6.419579983E-1,8.845667884E-1
2.176269535E0,-4.629690051E-1,-4.322609901E-1,-5.561239719E-1,8.428901088E-1
2.181280687E0,-4.089789987E-1,-4.378550053E-1,-4.722270072E-1,7.628755949E-1
2.186291995E0,-3.405320048E-1,-4.161199927E-1,-3.850179911E-1,6.613295307E-1
2.191303151E0,-2.557210028E-1,-3.177520037E-1,-3.051599860E-1,5.093939381E-1
2.196314457E0,-1.804260015E-1,-2.074570060E-1,-2.205380052E-1,3.524612931E-1
2.201325526E0,-1.027690023E-1,-6.436999887E-2,-1.493680030E-1,1.923948152E-1
2.206336603E0,-3.665700182E-2,8.305499703E-2,-5.610699952E-2,1.067233044E-1
2.211347759E0,-2.659999998E-3,2.535839975E-1,3.109999932E-2,2.554978069E-1
2.216359067E0,4.993000068E-3,4.087820053E-1,1.053199992E-1,4.221610595E-1
2.221370146E0,-2.215900086E-2,5.387390256E-1,1.407440007E-1,5.572608301E-1
2.226381298E0,-1.040579975E-1,6.167489886E-1,1.116539985E-1,6.353534427E-1
2.231392600E0,-1.880030036E-1,6.306620240E-1,2.068700083E-2,6.584129934E-1
2.236403679E0,-2.643949986E-1,5.756670237E-1,-1.297239959E-1,6.466262850E-1
2.241414831E0,-3.054710031E-1,4.926269948E-1,-2.944070101E-1,6.501302772E-1
2.246425920E0,-3.004249930E-1,3.513999879E-1,-4.412469864E-1,6.390900022E-1
2.251437226E0,-2.995629907E-1,1.961320043E-1,-5.334280133E-1,6.424571533E-1
2.256448382E0,-2.961019874E-1,4.029700160E-2,-5.371540189E-1,6.146825809E-1
2.261459449E0,-2.813679874E-1,-1.079540029E-1,-4.729700089E-1,5.608231810E-1
2.266470754E0,-2.629509866E-1,-2.291759998E-1,-3.628380001E-1,5.033053492E-1
2.271481824E0,-2.712729871E-1,-3.393149972E-1,-1.886560023E-1,4.736188215E-1
2.276492976E0,-2.589060068E-1,-4.388230145E-1,-1.917699911E-2,5.098683317E-1
2.281504308E0,-2.774730027E-1,-5.190950036E-1,1.207149997E-1,6.008518962E-1
2.286515387E0,-2.680830061E-1,-5.665619969E-1,2.488210052E-1,6.743685099E-1
2.291526524E0,-2.198390067E-1,-5.492219925E-1,3.575350046E-1,6.912345951E-1
2.296537831E0,-1.544580013E-1,-4.928089976E-1,3.894219995E-1,6.468133239E-1
2.301548924E0,-8.837299794E-2,-4.135670066E-1,3.134599924E-1,5.264072782E-1
2.306560076E0,-1.199700031E-2,-3.153370023E-1,1.434690058E-1,3.466478165E-1
2.311571155E0,8.593499660E-2,-2.151129991E-1,-5.093400180E-2,2.371765135E-1
2.316582457E0,1.374890059E-1,-1.224149987E-1,-2.697319984E-1,3.265639442E-1
2.321593613E0,1.762740016E-1,-2.807099931E-2,-5.291159749E-1,5.584122308E-1
2.326604946E0,1.377190053E-1,5.692299828E-2,-7.559589744E-1,7.705067963E-1
2.331616025E0,3.796900064E-2,1.192160025E-1,-9.609779716E-1,9.690886245E-1
2.336627177E0,-8.173699677E-2,1.725089997E-1,-1.081769943E0,1.098483728E0
2.341638480E0,-2.185139954E-1,2.205529958E-1,-1.136836052E0,1.178468582E0
2.346649559E0,-3.162289858E-1,2.677359879E-1,-1.226186991E0,1.294302077E0
2.351660706E0,-4.060510099E-1,2.940799892E-1,-1.246634960E0,1.343673765E0
2.356671785E0,-4.721589983E-1,2.887789905E-1,-1.216598988E0,1.336577915E0
2.361682876E0,-5.153070092E-1,2.628000081E-1,-1.107002974E0,1.249023915E0
2.366694258E0,-5.039190054E-1,2.079920024E-1,-9.081019759E-1,1.059171486E0
2.371705337E0,-4.282909930E-1,1.074530035E-1,-5.539230108E-1,7.083855056E-1
2.376716653E0,-3.112129867E-1,-4.475099966E-2,-1.014159992E-1,3.303655248E-1
2.381727732E0,-2.258650064E-1,-2.264429927E-1,2.677389979E-1,4.171038253E-1
2.386738908E0,-2.109359950E-1,-3.660770059E-1,5.144069791E-1,6.656732745E-1
2.391750215E0,-2.224999964E-1,-4.418869913E-1,6.776189804E-1,8.390100381E-1
2.396761371E0,-2.408470064E-1,-4.687500000E-1,6.848800182E-1,8.641727156E-1
2.401772433E0,-2.840079963E-1,-5.102519989E-1,5.859879851E-1,8.272844511E-1
2.406783510E0,-3.279680014E-1,-5.487959981E-1,3.853929937E-1,7.465037287E-1
2.411794831E0,-3.450230062E-1,-5.529339910E-1,7.615800202E-2,6.561835981E-1
2.416805987E0,-3.246240020E-1,-4.838640094E-1,-3.034439981E-1,6.569500607E-1
2.421817287E0,-2.842440009E-1,-3.428159952E-1,-7.254260182E-1,8.512111175E-1
2.426828366E0,-1.946740001E-1,-1.506920010E-1,-1.114091992E0,1.140967578E0
2.431839518E0,-8.538299799E-2,8.225099742E-2,-1.426141024E0,1.431060342E0
2.436850573E0,8.388999850E-3,3.073869944E-1,-1.701761961E0,1.729320939E0
2.441861879E0,8.036500216E-2,4.967690110E-1,-1.863700032E0,1.930444455E0
2.446872958E0,1.660870016E-1,6.445500255E-1,-1.850252032E0,1.966332172E0
2.451884134E0,2.677719891E-1,7.701939940E-1,-1.679847002E0,1.867293918E0
2.456895441E0,3.714039922E-1,8.323709965E-1,-1.405488968E0,1.675166153E0
2.461906611E0,4.492970109E-1,8.530089855E-1,-1.094892979E0,1.458863519E0
2.466917688E0,5.278729796E-1,8.172039986E-1,-8.120369911E-1,1.267231760E0
2.471928994E0,5.767800212E-1,7.672449946E-1,-5.629699826E-1,1.112778179E0
2.476940073E0,5.897870064E-1,6.885300279E-1,-3.305490017E-1,9.649792509E-1
2.481951236E0,5.863350034E-1,6.067100167E-1,-1.305100024E-1,8.537673227E-1
2.486962543E0,5.435109735E-1,5.141379833E-1,4.272399843E-2,7.493779982E-1
2.491973622E0,4.717099965E-1,3.983559906E-1,1.708360016E-1,6.406112359E-1
2.496984774E0,3.785719872E-1,2.899340093E-1,2.642619908E-1,5.451723388E-1
2.501996067E0,2.786999941E-1,1.718059927E-1,3.354820013E-1,4.687634361E-1
2.507007146E0,1.908060014E-1,9.298799932E-2,3.456439972E-1,4.056149294E-1
2.512018298E0,1.285739988E-1,2.331599966E-2,2.585580051E-1,2.897018312E-1
2.517029362E0,7.264800370E-2,-2.103899978E-2,1.444399953E-1,1.630438107E-1
2.522040668E0,3.671700135E-2,-5.710399896E-2,1.558599994E-2,6.965578425E-2
2.527051742E0,4.060000181E-3,-7.261099666E-2,-8.060900122E-2,1.085663461E-1
2.532062894E0,-2.761700004E-2,-7.153700292E-2,-1.118379980E-1,1.356022835E-1
2.537074202E0,-6.302700192E-2,-6.120700017E-2,-1.424870044E-1,1.673954786E-1
2.542085296E0,-1.064860001E-1,-4.210500047E-2,-1.933609992E-1,2.247233306E-1
2.547096447E0,-1.578540057E-1,-3.430199996E-2,-3.133729994E-1,3.525580110E-1
2.552107750E0,-2.305849940E-1,-2.625999972E-2,-4.683420062E-1,5.226884940E-1
2.557118829E0,-2.706930041E-1,-5.243900046E-2,-5.575379729E-1,6.219912721E-1
2.562129957E0,-2.909860015E-1,-5.720699951E-2,-5.770829916E-1,6.488222199E-1
2.567141265E0,-2.945339978E-1,-9.649299830E-2,-5.172399879E-1,6.029911936E-1
2.572152329E0,-2.728149891E-1,-1.622940004E-1,-4.103710055E-1,5.188176202E-1
2.577163480E0,-2.359759957E-1,-2.306769937E-1,-2.995940149E-1,4.457051937E-1
2.582174583E0,-1.521600038E-1,-3.064840138E-1,-1.945140064E-1,3.935998173E-1
2.587185889E0,-8.989399672E-2,-3.680689931E-1,-7.603500038E-2,3.864415035E-1
2.592196959E0,-5.558599904E-2,-4.322249889E-1,2.969300002E-2,4.367950533E-1
2.597208342E0,-4.244999960E-3,-4.660750031E-1,1.211609989E-1,4.815847965E-1
2.602219435E0,5.906999856E-2,-4.728890061E-1,1.685159951E-1,5.054808775E-1
2.607230588E0,1.363780051E-1,-4.931789935E-1,2.145899981E-1,5.548633590E-1
2.612241909E0,1.764349937E-1,-4.845300019E-1,2.269349992E-1,5.633809756E-1
2.617252988E0,1.895579994E-1,-4.656699896E-1,2.768360078E-1,5.739503023E-1
2.622264055E0,2.136290073E-1,-4.241749942E-1,3.804169893E-1,6.085054349E-1
2.627275438E0,2.344959974E-1,-3.866640031E-1,4.687300026E-1,6.513104018E-1
2.632286276E0,2.548570037E-1,-3.863259852E-1,5.557640195E-1,7.232382073E-1
2.637297582E0,2.585690022E-1,-4.515450001E-1,6.100509763E-1,8.018185640E-1
2.642308737E0,1.927420050E-1,-5.594739914E-1,7.281550169E-1,9.382805317E-1
2.647320043E0,7.785400003E-2,-7.046480179E-1,8.638970256E-1,1.117545590E0
2.652331122E0,1.227000030E-3,-8.437280059E-1,1.040897965E0,1.339905604E0
2.657342274E0,-4.993800074E-2,-9.674569964E-1,1.216583967E0,1.555166677E0
2.662353338E0,-3.904300183E-2,-1.062386990E0,1.356237054E0,1.723243865E0
2.667364643E0,1.594300009E-2,-1.105298042E0,1.503849983E0,1.866414400E0
2.672375799E0,9.056399763E-2,-1.092401028E0,1.646322012E0,1.977856924E0
2.677387095E0,2.190759927E-1,-1.022711992E0,1.751788020E0,2.040268457E0
2.682398174E0,2.909109890E-1,-9.095039964E-1,1.805117965E0,2.042125753E0
2.687409346E0,3.331789970E-1,-7.639269829E-1,1.753069043E0,1.941093442E0
2.692420425E0,3.421429992E-1,-5.708320141E-1,1.618940949E0,1.750394475E0
2.697431730E0,3.327009976E-1,-3.576000035E-1,1.420542955E0,1.502168434E0
2.702442886E0,3.239359856E-1,-1.256909966E-1,1.130656004E0,1.182842233E0
2.707453963E0,2.692570090E-1,9.546700120E-2,7.811080217E-1,8.317109034E-1
2.712465269E0,2.372629941E-1,3.096260130E-1,3.466480076E-1,5.218494395E-1
2.717476348E0,1.806170046E-1,5.376009941E-1,-1.335870028E-1,5.826515413E-1
2.722487500E0,7.436700165E-2,7.223010063E-1,-6.406750083E-1,9.683561643E-1
2.727498579E0,-4.295900092E-2,8.506870270E-1,-1.128064036E0,1.413521264E0
2.732509874E0,-1.789399981E-2,9.923909903E-1,-1.467136979E0,1.771341579E0
2.737521030E0,3.895400092E-2,1.128034949E0,-1.705716968E0,2.045348536E0
2.742532126E0,6.901700050E-2,1.204851031E0,-1.858284950E0,2.215773524E0
2.747543432E0,8.949399740E-2,1.199419022E0,-1.885223985E0,2.236221062E0
2.752554579E0,8.441500366E-2,1.113927960E0,-1.808424950E0,2.125643948E0
2.757565884E0,3.385299817E-2,9.417309761E-1,-1.736314058E0,1.975547966E0
2.762576948E0,-5.613800138E-2,6.582499743E-1,-1.611379027E0,1.741547264E0
2.767588100E0,-1.335819960E-1,3.698630035E-1,-1.418457985E0,1.471959866E0
2.772599408E0,-2.058950067E-1,1.120840013E-1,-1.221837997E0,1.244123655E0
2.777610497E0,-2.897520065E-1,-1.441529989E-1,-1.042683959E0,1.091753704E0
2.782621649E0,-3.528209925E-1,-3.676460087E-1,-8.429149985E-1,9.849629106E-1
2.787632718E0,-3.822019994E-1,-5.748069882E-1,-6.038680077E-1,9.171357657E-1
2.792644100E0,-4.347020090E-1,-7.380040288E-1,-3.934600055E-1,9.425638223E-1
2.797655179E0,-4.843589962E-1,-8.304139972E-1,-2.403340042E-1,9.909346484E-1
2.802666266E0,-5.449479818E-1,-8.311619759E-1,-2.075490057E-1,1.015320207E0
2.807677572E0,-5.351920128E-1,-7.042970061E-1,-2.205300033E-1,9.116458993E-1
2.812688723E0,-5.127360225E-1,-5.015820265E-1,-2.846370041E-1,7.716871012E-1
2.817699800E0,-4.848339856E-1,-2.617349923E-1,-3.611179888E-1,6.587680939E-1
2.822711105E0,-4.609189928E-1,-1.048300043E-2,-4.076740146E-1,6.154301856E-1
2.827722164E0,-4.685670137E-1,2.172300071E-1,-4.254420102E-1,6.691373748E-1
2.832733547E0,-4.556739926E-1,4.318209887E-1,-4.011470079E-1,7.450013931E-1
2.837744617E0,-4.434539974E-1,6.174100041E-1,-3.430260122E-1,8.339744637E-1
2.842755694E0,-4.199289978E-1,7.554429770E-1,-2.637720108E-1,9.036648318E-1
2.847767076E0,-4.198319912E-1,8.076360226E-1,-2.374860048E-1,9.407095451E-1
2.852777945E0,-3.957160115E-1,8.096899986E-1,-2.448150069E-1,9.338754966E-1
2.857789250E0,-3.364950120E-1,7.568809986E-1,-2.739349902E-1,8.724323000E-1
2.862800406E0,-2.592630088E-1,6.452260017E-1,-2.923460007E-1,7.543209431E-1
2.867811483E0,-1.667570025E-1,4.582509995E-1,-3.410870135E-1,5.950985020E-1
2.872822789E0,-3.181700036E-2,2.062360048E-1,-4.043740034E-1,4.550427956E-1
2.877833935E0,1.322659999E-1,-5.935300142E-2,-4.143480062E-1,4.389776119E-1
2.882845012E0,2.894220054E-1,-3.137600124E-1,-3.767539859E-1,5.693452454E-1
2.887856312E0,4.278070033E-1,-5.555120111E-1,-2.549600005E-1,7.460677103E-1
2.892867391E0,5.455179811E-1,-7.457479835E-1,-4.704999924E-2,9.251722136E-1
2.897878543E0,6.315400004E-1,-8.831049800E-1,1.503469944E-1,1.096048081E0
2.902889851E0,6.845179796E-1,-9.374960065E-1,3.793660104E-1,1.221221600E0
2.907901007E0,7.007920146E-1,-9.160249829E-1,5.423830152E-1,1.274515811E0
2.912912079E0,7.116739750E-1,-8.371379972E-1,6.653199792E-1,1.284496223E0
2.917923384E0,6.732000113E-1,-6.980980039E-1,7.074519992E-1,1.200428011E0
2.922934478E0,6.008390188E-1,-5.337129831E-1,6.869249940E-1,1.057224206E0
2.927945630E0,5.257689953E-1,-3.494139910E-1,6.354129910E-1,8.956968475E-1
2.932956709E0,4.435679913E-1,-1.860799938E-1,5.386480093E-1,7.221634198E-1
2.937968019E0,3.451179862E-1,-3.669000044E-2,4.134399891E-1,5.398010792E-1
2.942979175E0,2.518709898E-1,8.922500163E-2,2.716059983E-1,3.810116989E-1
2.947990281E0,1.149939969E-1,1.914110035E-1,8.466500044E-2,2.388094510E-1
2.953001586E0,-2.474400029E-2,2.610929906E-1,-8.128999919E-2,2.745721750E-1
2.958012757E0,-1.510419995E-1,3.267939985E-1,-2.667790055E-1,4.480837431E-1
2.963023834E0,-2.153069973E-1,3.532170057E-1,-4.509679973E-1,6.119570988E-1
2.968035135E0,-2.702130079E-1,3.432730138E-1,-6.391940117E-1,7.742224592E-1
2.973046214E0,-2.623389959E-1,2.761749923E-1,-8.323010206E-1,9.153247315E-1
2.978057366E0,-2.261400074E-1,1.816319972E-1,-9.954860210E-1,1.036880853E0
2.983068683E0,-1.323730052E-1,8.328799903E-2,-1.052111983E0,1.063672472E0
2.988079762E0,1.472800039E-2,-2.922999905E-3,-1.011139035E0,1.011250516E0
2.993091135E0,1.739339978E-1,-8.959600329E-2,-8.697019815E-1,8.914381729E-1
2.998102214E0,3.241379857E-1,-1.947070062E-1,-6.625239849E-1,7.628330634E-1
3.003113291E0,3.843530118E-1,-3.135690093E-1,-4.659189880E-1,6.805389516E-1
3.008124443E0,4.081090093E-1,-4.390339851E-1,-2.653940022E-1,6.555438810E-1
3.013135750E0,4.055109918E-1,-5.803300142E-1,-5.402100086E-2,7.100284209E-1
3.018146848E0,3.376890123E-1,-7.163000107E-1,1.424549967E-1,8.046197862E-1
3.023158000E0,2.435369939E-1,-8.470759988E-1,3.386839926E-1,9.442218288E-1
3.028169308E0,1.724310070E-1,-9.130619764E-1,6.068080068E-1,1.109788530E0
3.033180387E0,1.143010035E-1,-9.369570017E-1,8.667950034E-1,1.281517351E0
3.038191539E0,8.734600246E-2,-9.176650047E-1,1.120044947E0,1.450599555E0
3.043202597E0,7.217100263E-2,-8.524289727E-1,1.287271976E0,1.545610866E0
3.048213980E0,1.970699988E-2,-7.715129852E-1,1.360450029E0,1.564111548E0
3.053225040E0,-2.009399980E-2,-6.783519983E-1,1.376412988E0,1.534626311E0
3.058236346E0,-6.825300306E-2,-5.575410128E-1,1.322006941E0,1.436388807E0
3.063247420E0,-1.359589994E-1,-4.336769879E-1,1.207335949E0,1.290046772E0
3.068258572E0,-1.551589966E-1,-3.047589958E-1,1.068500042E0,1.121893355E0
3.073269650E0,-1.594280005E-1,-1.616100073E-1,9.201080203E-1,9.476992407E-1
3.078280956E0,-1.351249963E-1,-2.596700005E-2,7.502650023E-1,7.627782268E-1
3.083292035E0,-7.117799670E-2,9.762299806E-2,5.801759958E-1,5.926219226E-1
3.088303187E0,-3.417999949E-3,2.298350036E-1,3.651059866E-1,4.314373570E-1
3.093314514E0,2.852700092E-2,3.352780044E-1,1.476529986E-1,3.674595733E-1
3.098325593E0,6.507799774E-2,4.359320104E-1,-4.629199952E-2,4.431871080E-1
3.103336749E0,7.577800006E-2,5.084729791E-1,-2.268379927E-1,5.619097353E-1
3.108348057E0,1.029630005E-1,5.279909968E-1,-3.737429976E-1,6.550264884E-1
3.113359121E0,1.135969982E-1,5.021679997E-1,-5.329120159E-1,7.409940585E-1
3.118370273E0,1.171469986E-1,4.399569929E-1,-6.317780018E-1,7.787355253E-1
3.123381581E0,1.391620040E-1,3.894039989E-1,-7.040370107E-1,8.164984079E-1
3.128392665E0,1.466259956E-1,3.563629985E-1,-7.004060149E-1,7.994137571E-1
3.133403816E0,1.492179930E-1,3.217329979E-1,-6.879289746E-1,7.739666695E-1
3.138415124E0,1.215279996E-1,2.910720110E-1,-6.242300272E-1,6.993962376E-1
3.143426198E0,9.008499980E-2,2.547490001E-1,-5.666840076E-1,6.278081910E-1
3.148437350E0,5.947799981E-2,1.894820035E-1,-4.895829856E-1,5.283299745E-1
3.153448653E0,4.801199958E-2,1.240689978E-1,-3.930329978E-1,4.149375926E-1
3.158459732E0,1.343499962E-2,5.105900019E-2,-3.102580011E-1,3.147182040E-1
3.163470883E0,-2.269800007E-2,-2.048799954E-2,-2.551369965E-1,2.569627294E-1
3.168481962E0,-6.733199954E-2,-9.080699831E-2,-2.082960010E-1,2.369952175E-1
3.173493039E0,-1.225050017E-1,-1.276240051E-1,-2.068659961E-1,2.721927671E-1
3.178504345E0,-1.531649977E-1,-1.500319988E-1,-1.887059957E-1,2.856204999E-1
3.183515501E0,-1.807609946E-1,-1.701309979E-1,-1.800049990E-1,3.066282656E-1
3.188526807E0,-2.238740027E-1,-1.787730008E-1,-1.947039962E-1,3.463942855E-1
3.193537972E0,-2.240429968E-1,-1.642169952E-1,-1.967529953E-1,3.404030362E-1
3.198549278E0,-2.358350009E-1,-1.358959973E-1,-1.814779937E-1,3.271393158E-1
3.203560362E0,-2.541390061E-1,-9.404800087E-2,-1.725759953E-1,3.212695676E-1
3.208571439E0,-2.532309890E-1,-6.011300161E-2,-1.629749984E-1,3.070836317E-1
3.213582586E0,-2.661420107E-1,-3.646999970E-2,-1.694239974E-1,3.175942720E-1
3.218593894E0,-2.485119998E-1,-2.230199985E-2,-1.305029988E-1,2.815788095E-1
3.223605049E0,-2.479449958E-1,-1.279299986E-2,-7.734200358E-2,2.600426259E-1
3.228616126E0,-2.196809947E-1,1.501100045E-2,-5.693199858E-2,2.274342148E-1
3.233627432E0,-2.293719947E-1,2.319500037E-2,-5.040999874E-2,2.359887455E-1
3.238638511E0,-2.200700045E-1,2.141400054E-2,-4.830500111E-2,2.263244119E-1
3.243649663E0,-1.877540052E-1,2.704500034E-2,-8.163000457E-3,1.898674092E-1
3.248660971E0,-1.492269933E-1,1.248800009E-2,8.333300054E-2,1.713739614E-1
3.253672055E0,-1.092450023E-1,-2.489499934E-2,1.402699947E-1,1.795268864E-1
3.258683206E0,-9.312900156E-2,-6.233000010E-2,1.135110036E-1,1.595079552E-1
3.263694289E0,-7.703900337E-2,-7.122799754E-2,1.012760028E-1,1.458261445E-1
3.268705595E0,-7.054200023E-2,-5.898499861E-2,9.180700034E-2,1.299381744E-1
3.273716771E0,-3.417000175E-2,-5.624600127E-2,1.133190021E-1,1.310434963E-1
3.278727848E0,-2.443500049E-2,-6.809499860E-2,9.434899688E-2,1.188937816E-1
3.283739139E0,-3.828100115E-2,-9.434200078E-2,7.065699995E-2,1.239284463E-1
3.288750294E0,-2.865899913E-2,-1.114199981E-1,3.534799814E-2,1.203546226E-1
3.293761371E0,-2.639600076E-2,-9.347800165E-2,-1.552999951E-3,9.714575368E-2
3.298772668E0,-3.128200024E-2,-7.847499847E-2,-2.358499914E-2,8.771055301E-2
3.303783824E0,-2.239199914E-2,-7.802999765E-2,-3.589000180E-2,8.875908059E-2
3.308794901E0,-4.664900154E-2,-6.829900295E-2,-4.790800065E-2,9.558273732E-2
3.313806201E0,-4.963399842E-2,-7.063899934E-2,-5.505299941E-2,1.023925523E-1
3.318817357E0,-8.061700314E-2,-8.457999676E-2,-5.769800022E-2,1.303147585E-1
3.323828419E0,-9.007100016E-2,-8.414400369E-2,-6.514599919E-2,1.394166405E-1
3.328839725E0,-6.702800095E-2,-7.884699851E-2,-5.597199872E-2,1.176540128E-1
3.333850804E0,-6.569799781E-2,-6.660500169E-2,-6.333900243E-2,1.129791237E-1
3.338861942E0,-5.980499834E-2,-7.610200346E-2,-9.206400067E-2,1.335811850E-1
3.343873249E0,-6.346400082E-2,-6.665799767E-2,-9.188300371E-2,1.300517375E-1
3.348884308E0,-7.177799940E-2,-7.372900099E-2,-8.472900093E-2,1.332930995E-1
3.353895460E0,-7.319500297E-2,-8.054000139E-2,-6.347700208E-2,1.259901983E-1
3.358906773E0,-9.098400176E-2,-8.961100131E-2,-5.428399891E-2,1.387622884E-1
3.363917852E0,-1.177159995E-1,-1.126980036E-1,-3.818599880E-2,1.673800080E-1
3.368929009E0,-1.345719993E-1,-1.236039996E-1,-2.226500027E-2,1.840741751E-1
3.373940088E0,-1.579360068E-1,-1.438859999E-1,-1.844299957E-2,2.144460479E-1
3.378951393E0,-1.621199995E-1,-1.333930045E-1,-1.669500023E-2,2.106070059E-1
3.383962549E0,-1.545470059E-1,-1.301040053E-1,-5.361999851E-3,2.020905250E-1
3.388973631E0,-1.377699971E-1,-1.249720007E-1,-1.985800080E-2,1.870639283E-1
3.393984937E0,-1.284729987E-1,-9.622699767E-2,-5.359999835E-3,1.606040973E-1
3.398996093E0,-9.855700284E-2,-6.341999769E-2,-1.178199984E-2,1.177896194E-1
3.404007189E0,-6.015799940E-2,-7.539999788E-4,-1.710700057E-2,6.254760488E-2
3.409018494E0,-1.350999996E-2,4.689399898E-2,-1.472499967E-2,5.097443334E-2
3.414029573E0,4.585399851E-2,9.589199722E-2,-3.540400043E-2,1.120326183E-1
3.419040711E0,1.084090024E-1,1.386460066E-1,-9.788499773E-2,2.013869403E-1
3.424052019E0,1.554989964E-1,1.634979993E-1,-1.713089943E-1,2.832989678E-1
3.429063113E0,2.012960017E-1,1.686580032E-1,-2.347130030E-1,3.522155535E-1
3.434074265E0,2.178460062E-1,1.663819999E-1,-2.859210074E-1,3.960942751E-1
3.439085596E0,2.222509980E-1,1.576299965E-1,-2.899270058E-1,3.978698161E-1
3.444096675E0,2.147919983E-1,1.496340036E-1,-2.874450088E-1,3.887808774E-1
3.449107832E0,1.818239987E-1,1.121030003E-1,-2.624619901E-1,3.383982054E-1
3.454119140E0,1.449680030E-1,7.132399827E-2,-2.340909988E-1,2.844317675E-1
3.459130219E0,1.112819985E-1,3.458800167E-2,-1.833100021E-1,2.172154919E-1
3.464141356E0,7.366299629E-2,-2.216500044E-2,-1.554609984E-1,1.734521441E-1
3.469152435E0,5.768600106E-2,-4.694699869E-2,-1.260389984E-1,1.463472737E-1
3.474163740E0,4.879400134E-2,-5.920900032E-2,-9.476199746E-2,1.219278330E-1
3.479174896E0,3.291000053E-2,-5.964000151E-2,-8.966699988E-2,1.126062555E-1
3.484186202E0,3.334000008E-3,-1.049949974E-1,-8.983000368E-2,1.382190095E-1
3.489197281E0,-1.403199974E-2,-1.382099986E-1,-9.971799701E-2,1.710046188E-1
3.494208448E0,-3.111300059E-2,-1.713200063E-1,-1.144720018E-1,2.083804274E-1
3.499219755E0,-4.549600184E-2,-1.876470000E-1,-1.220590025E-1,2.284287260E-1
3.504230848E0,-6.431300193E-2,-2.015430033E-1,-1.272650063E-1,2.468848441E-1
3.509242000E0,-7.811400294E-2,-2.059949934E-1,-1.323329955E-1,2.569975807E-1
3.514253308E0,-8.935199678E-2,-1.842519939E-1,-1.157319993E-1,2.352157993E-1
3.519264387E0,-9.108699858E-2,-1.698569953E-1,-1.061509997E-1,2.200369853E-1
3.524275539E0,-1.022759974E-1,-1.391450018E-1,-9.375599772E-2,1.964991050E-1
3.529286627E0,-9.233400226E-2,-1.043860018E-1,-9.264200181E-2,1.673455881E-1
3.534297932E0,-6.890500337E-2,-7.031200081E-2,-9.092999995E-2,1.340147075E-1
3.539309088E0,-8.792199939E-2,-9.108600020E-2,-9.653600305E-2,1.592047025E-1
3.544320175E0,-6.458199769E-2,-9.284199774E-2,-1.044630036E-1,1.539577542E-1
3.549331481E0,-3.733199835E-2,-8.274500072E-2,-9.319599718E-2,1.300996047E-1
3.554342555E0,8.169999928E-4,-7.996600121E-2,-9.383100271E-2,1.232861951E-1
3.559353707E0,2.635299973E-2,-5.840900168E-2,-8.697699755E-2,1.080328199E-1
3.564365004E0,3.745000064E-2,-6.544599682E-2,-8.024100214E-2,1.101103968E-1
3.569376083E0,2.307599969E-2,-3.979299963E-2,-1.061680019E-1,1.157049230E-1
3.574387226E0,1.407600008E-2,-2.244799957E-2,-1.572850049E-1,1.595011574E-1
3.579398534E0,5.202899873E-2,1.179000014E-3,-1.980189979E-1,2.047435720E-1
3.584409685E0,8.213499933E-2,1.933999918E-2,-2.285580039E-1,2.436369324E-1
3.589420762E0,6.519900262E-2,1.364200003E-2,-2.447450012E-1,2.536476488E-1
3.594432067E0,7.204300165E-2,1.478799991E-2,-2.749629915E-1,2.846287507E-1
3.599443204E0,9.280499816E-2,3.385299817E-2,-3.470819890E-1,3.608665963E-1
3.604454281E0,1.363919973E-1,8.326400071E-2,-3.658689857E-1,3.992440174E-1
3.609465382E0,8.614999801E-2,5.023499951E-2,-3.379389942E-1,3.523466207E-1
3.614476688E0,2.577299997E-2,-4.742300138E-2,-3.026289940E-1,3.074044512E-1
3.619487844E0,8.558000438E-3,-1.031000018E-1,-2.781549990E-1,2.967710451E-1
3.624499149E0,-2.028400078E-2,-1.359959990E-1,-2.381259948E-1,2.749733475E-1
3.629510228E0,-5.100800097E-2,-1.322630048E-1,-1.844269931E-1,2.326126273E-1
3.634521370E0,-8.337300271E-2,-1.326750070E-1,-1.408800036E-1,2.107151880E-1
3.639532449E0,-1.055409983E-1,-1.304190010E-1,-1.167040020E-1,2.043718235E-1
3.644543741E0,-1.061849967E-1,-1.065009981E-1,-7.829699665E-2,1.695527523E-1
3.649554897E0,-9.985300153E-2,-7.756999880E-2,-3.054999933E-2,1.300808560E-1
3.654566202E0,-5.426499993E-2,-5.775700137E-2,3.101599962E-2,8.510319416E-2
3.659577281E0,-7.588000037E-3,-2.830599993E-2,8.047000319E-2,8.564011204E-2
3.664588358E0,2.156100050E-2,8.629999938E-4,1.086150035E-1,1.107377104E-1
3.669599514E0,5.928599834E-2,1.062799990E-2,1.154170036E-1,1.301878209E-1
3.674610822E0,9.385500103E-2,2.012499981E-2,1.176500022E-1,1.518397177E-1
3.679621978E0,1.299940050E-1,5.986500159E-2,1.063219979E-1,1.782880450E-1
3.684633036E0,1.445849985E-1,6.814400107E-2,1.001269966E-1,1.886102917E-1
3.689644341E0,8.719599992E-2,-1.158700045E-2,5.048200116E-2,1.014190979E-1
3.694655487E0,8.253700286E-2,-6.952299923E-2,1.016100030E-2,1.083930357E-1
3.699666564E0,1.334500015E-1,-1.102529988E-1,-2.001000103E-3,1.731145015E-1
3.704677870E0,1.477790028E-1,-1.247659996E-1,-2.845899947E-2,1.954868358E-1
3.709688944E0,1.360320002E-1,-1.252020001E-1,-4.744600132E-2,1.908700316E-1
3.714700096E0,1.013550013E-1,-1.209499985E-1,-5.431000143E-2,1.668871316E-1
3.719711403E0,7.462199777E-2,-1.077649966E-1,-9.160900116E-2,1.599185609E-1
3.724722487E0,5.090900138E-2,-9.509299695E-2,-1.235840023E-1,1.640347832E-1
3.729733639E0,2.082799934E-2,-8.254399896E-2,-1.314609945E-1,1.566183590E-1
3.734744718E0,-1.078599971E-2,-7.479000092E-2,-1.368850023E-1,1.563565984E-1
3.739756024E0,-3.460799903E-2,-6.692600250E-2,-1.399859935E-1,1.589744690E-1
3.744767180E0,-5.317300186E-2,-4.479499906E-2,-1.381859928E-1,1.546910750E-1
3.749778485E0,-5.962400138E-2,-3.225599974E-2,-1.411429942E-1,1.565784655E-1
3.754789564E0,-5.671599880E-2,-1.246600039E-2,-1.274310052E-1,1.400384475E-1
3.759800711E0,-5.623500049E-2,-1.837899908E-2,-1.023650020E-1,1.182317915E-1
3.764811790E0,-4.651600122E-2,-2.877099998E-2,-1.039429978E-1,1.174549088E-1
3.769823106E0,-4.404599965E-2,-4.350899905E-2,-9.638500214E-2,1.145563255E-1
3.774834262E0,-4.160900041E-2,-6.466899812E-2,-7.521600276E-2,1.075678172E-1
3.779845333E0,-2.295799926E-2,-7.822900265E-2,-6.406400353E-2,1.036872371E-1
3.784856639E0,-2.553000115E-3,-9.835200012E-2,-4.398500174E-2,1.077697273E-1
3.789867800E0,1.034600008E-2,-1.223580018E-1,-1.045200042E-2,1.232386491E-1
3.794879106E0,2.061600052E-2,-1.433649957E-1,1.290000044E-2,1.454130375E-1
3.799890185E0,2.599800006E-2,-1.542170048E-1,4.764299840E-2,1.634889472E-1
3.804901337E0,4.520399868E-2,-1.483680010E-1,6.565800309E-2,1.684263595E-1
3.809912415E0,5.943800136E-2,-7.390400022E-2,1.131440029E-1,1.476355060E-1
3.814923721E0,-7.517999969E-3,-6.879299879E-2,1.392010003E-1,1.554539015E-1
3.819934800E0,-1.301420033E-1,-1.793030053E-1,1.447550058E-1,2.646516965E-1
3.824946193E0,-1.401830018E-1,-2.672300041E-1,1.421220005E-1,3.335593082E-1
3.829957272E0,-4.357599840E-2,-2.220419943E-1,1.617040038E-1,2.781181399E-1
3.834968349E0,3.633999964E-3,-2.012780011E-1,1.745080054E-1,2.664190001E-1
3.839979504E0,5.874799937E-2,-1.572670043E-1,1.950619966E-1,2.573585448E-1
3.844990583E0,1.102500036E-1,-8.396299928E-2,1.646720022E-1,2.152248054E-1
3.850001889E0,1.397089958E-1,-3.396999836E-2,1.048740000E-1,1.779638170E-1
3.855013060E0,1.640249938E-1,4.033700004E-2,3.743899986E-2,1.730114183E-1
3.860024137E0,1.483650059E-1,2.077200077E-2,-3.659600019E-2,1.542171139E-1
3.865035443E0,1.911430061E-1,7.213699818E-2,-5.961700156E-2,2.128228892E-1
3.870046598E0,1.977880001E-1,1.164380014E-1,-2.771900035E-2,2.311844375E-1
3.875057909E0,2.134059966E-1,1.745959967E-1,-9.712000377E-3,2.758989025E-1
3.880068988E0,1.822919995E-1,1.985169947E-1,-3.877599910E-2,2.722920277E-1
3.885080140E0,1.149590015E-1,1.717109978E-1,-1.079389974E-1,2.331331507E-1
3.890091214E0,3.576299921E-2,1.299780011E-1,-2.003349960E-1,2.414692185E-1
3.895102520E0,-2.727499977E-2,8.563499898E-2,-2.708800137E-1,2.854001760E-1
3.900113680E0,-6.083000079E-2,9.063500166E-2,-3.428739905E-1,3.598299125E-1
3.905124757E0,-8.662100136E-2,1.162659973E-1,-3.995699883E-1,4.250613550E-1
3.910136038E0,-1.070720032E-1,8.697900176E-2,-4.419789910E-1,4.630066837E-1
3.915147194E0,-1.154770032E-1,4.933499917E-2,-4.281370044E-1,4.461728084E-1
3.920158505E0,-1.120750010E-1,8.617999963E-3,-3.777059913E-1,3.940772660E-1
3.925169584E0,-1.018529981E-1,-5.686099827E-2,-3.551549911E-1,3.738211793E-1
3.930180735E0,-7.804799825E-2,-1.107989997E-1,-2.819580138E-1,3.128389840E-1
3.935192048E0,-6.199200079E-2,-1.722660065E-1,-2.036419958E-1,2.738405514E-1
3.940203127E0,-2.319299988E-2,-1.943539977E-1,-1.384409964E-1,2.397442411E-1
3.945214274E0,-4.106999841E-3,-2.275560051E-1,-9.804499894E-2,2.478132860E-1
3.950225582E0,3.757800162E-2,-2.645980120E-1,-5.147799850E-2,2.721657555E-1
3.955236652E0,6.875400245E-2,-2.792240083E-1,1.092000026E-2,2.877714476E-1
3.960247803E0,1.059840024E-1,-2.791520059E-1,6.335499883E-2,3.052413914E-1
3.965258886E0,1.258250028E-1,-2.838720083E-1,8.705899864E-2,3.224818098E-1
3.970270192E0,1.520339996E-1,-2.532779872E-1,1.089050025E-1,3.148402379E-1
3.975281348E0,1.542589962E-1,-2.279040068E-1,1.359719932E-1,3.069600254E-1
3.980292425E0,1.356440037E-1,-1.916379929E-1,1.258510053E-1,2.663886101E-1
3.985303731E0,1.013450027E-1,-1.683849990E-1,1.000709981E-1,2.205414295E-1
3.990314877E0,7.976700366E-2,-1.320469975E-1,6.840199977E-2,1.687543126E-1
3.995325954E0,5.656599998E-2,-9.694000334E-2,2.362699993E-2,1.146966073E-1
4.000337260E0,4.103099927E-2,-7.680899650E-2,1.019999967E-3,8.708734262E-2
4.005348391E0,2.136100084E-2,-3.847799823E-2,-3.019299917E-2,5.337102119E-2
4.010359468E0,1.861999929E-2,-2.217699960E-2,-5.373400077E-2,6.103987650E-2
4.015370774E0,6.748000160E-3,3.415999934E-3,-5.782999843E-2,5.832249378E-2
4.020381852E0,6.938999984E-3,2.553000115E-3,-7.853800058E-2,7.888526520E-2
4.025393004E0,2.522000112E-3,1.116199978E-2,-8.238399774E-2,8.317495901E-2
4.030404297E0,5.301000085E-3,1.475400012E-2,-1.075320020E-1,1.086688207E-1
4.035415453E0,3.416999942E-3,4.048000090E-3,-1.231580004E-1,1.232718754E-1
4.040426525E0,3.882999998E-3,5.181999877E-3,-1.434459984E-1,1.435920794E-1
4.045437831E0,2.298899926E-2,6.337000057E-3,-1.542039961E-1,1.560369317E-1
4.050448986E0,3.222399950E-2,-1.473000040E-3,-1.344680041E-1,1.382830431E-1
4.055460288E0,4.342500120E-2,-1.382699981E-2,-1.389209926E-1,1.462051943E-1
4.060471367E0,3.572599962E-2,-2.578699961E-2,-1.317860037E-1,1.389563499E-1
4.065482528E0,3.749499843E-2,-4.186400026E-2,-1.109620035E-1,1.243826179E-1
4.070493607E0,3.909799829E-2,-5.310399830E-2,-1.213070005E-1,1.380727217E-1
4.075504913E0,2.204800025E-2,-6.866200268E-2,-1.081620008E-1,1.299984744E-1
4.080516006E0,1.238599978E-2,-7.199200243E-2,-9.526800364E-2,1.200510472E-1
4.085527158E0,1.212800015E-2,-8.462999761E-2,-8.264400065E-2,1.189090229E-1
4.090538475E0,2.555999905E-3,-9.695699811E-2,-7.271300256E-2,1.212203504E-1
4.095549554E0,9.522000328E-3,-1.067430004E-1,-7.011599839E-2,1.280663495E-1
4.100560721E0,4.774999805E-3,-1.188770011E-1,-7.712499797E-2,1.417843691E-1
4.105571800E0,2.320000058E-4,-1.309659928E-1,-8.656000346E-2,1.569865577E-1
4.110583095E0,5.121000111E-3,-1.361059994E-1,-1.005600020E-1,1.693026335E-1
4.115594251E0,2.906000009E-3,-1.318809986E-1,-1.095630005E-1,1.714791349E-1
4.120605299E0,-3.866000101E-3,-1.233550012E-1,-1.348229945E-1,1.827803111E-1
4.125616605E0,-1.275900006E-2,-1.172999963E-1,-1.312739998E-1,1.765076323E-1
4.130627761E0,-3.066599928E-2,-1.066320017E-1,-1.323110014E-1,1.726759636E-1
4.135639067E0,-4.789299890E-2,-1.033919975E-1,-1.402440071E-1,1.806987162E-1
4.140650145E0,-7.157000154E-2,-9.765999764E-2,-1.266990006E-1,1.752494708E-1
4.145661283E0,-8.741299808E-2,-1.017389968E-1,-1.439879984E-1,1.967851605E-1
4.150672591E0,-1.004090011E-1,-1.033649966E-1,-1.397739947E-1,2.007562194E-1
4.155683670E0,-9.905400127E-2,-9.559900314E-2,-1.377719939E-1,1.947613588E-1
4.160694802E0,-9.296700358E-2,-9.283400327E-2,-1.427329928E-1,1.939941317E-1
4.165705881E0,-8.478599787E-2,-8.792000264E-2,-1.474609971E-1,1.914767296E-1
4.170717196E0,-7.911399752E-2,-1.043429971E-1,-1.452150047E-1,1.955348645E-1
4.175728352E0,-7.136999816E-2,-1.134599969E-1,-1.431089938E-1,1.960791463E-1
4.180739429E0,-5.225199834E-2,-1.080069989E-1,-1.149260029E-1,1.661438211E-1
4.185750735E0,-3.374399990E-2,-1.069400012E-1,-8.478400111E-2,1.405814648E-1
4.190761891E0,-3.437900171E-2,-1.080259979E-1,-6.205999851E-2,1.292399915E-1
4.195773217E0,-4.416299984E-2,-9.029199928E-2,-6.291499734E-2,1.185804055E-1
4.200784295E0,-4.669199884E-2,-5.844499916E-2,-4.676999897E-2,8.822354270E-2
4.205795447E0,-3.050100058E-2,-2.200799994E-2,-3.044999950E-2,4.839282558E-2
4.210806516E0,-1.939499937E-2,-5.069000181E-3,-4.968100041E-2,5.357296487E-2
4.215817822E0,-3.869999945E-2,2.847000025E-3,-2.156499960E-2,4.439419528E-2
4.220828978E0,-2.272400074E-2,8.782000281E-3,3.706000047E-3,2.464220312E-2
4.225840284E0,-4.499999923E-4,1.894200034E-2,-3.511000052E-2,3.989629073E-2
4.230851439E0,3.730599955E-2,2.595599927E-2,-8.520700037E-2,9.656958327E-2
4.235862507E0,8.086399734E-2,2.188399993E-2,-5.012200028E-2,9.762228450E-2
4.240873584E0,1.022759974E-1,-1.456800010E-2,-3.295100108E-2,1.084360399E-1
4.245884890E0,8.355800062E-2,-3.838700056E-2,-2.599499933E-2,9.555752859E-2
4.250895969E0,5.149200186E-2,-7.161299884E-2,-6.461299956E-2,1.093374939E-1
4.255907121E0,3.878900036E-2,-1.020469964E-1,-8.686900139E-2,1.395148717E-1
4.260918428E0,3.340699896E-2,-1.130269989E-1,-9.746800363E-2,1.529416287E-1
4.265929482E0,3.052099980E-2,-1.143070012E-1,-1.129769981E-1,1.635891930E-1
4.270940634E0,2.538700029E-2,-1.102769971E-1,-9.789600223E-2,1.496300208E-1
4.275951933E0,3.444499895E-2,-8.418100327E-2,-5.703400075E-2,1.073581693E-1
4.280963089E0,5.021800101E-2,-5.532100052E-2,-1.178499963E-2,7.563826373E-2
4.285974166E0,7.256799936E-2,-3.347900137E-2,1.891200058E-2,8.212564661E-2
4.290985456E0,7.113900036E-2,-1.651199907E-2,3.535300121E-2,8.113715659E-2
4.295996535E0,9.776599705E-2,9.959000349E-2,7.466900349E-2,1.582776644E-1
4.301007692E0,-2.213400044E-2,2.222000062E-2,1.575499959E-2,3.509789759E-2
4.306019000E0,-5.020900071E-2,-6.387700140E-2,-1.763200015E-2,8.313905514E-2
4.311030156E0,-5.667800084E-2,-1.085229963E-1,-1.350000035E-2,1.231742121E-1
4.316041481E0,-4.706000164E-2,-1.029649973E-1,-4.571000114E-3,1.133019350E-1
4.321052559E0,-2.634599991E-2,-1.138899997E-1,1.122500002E-2,1.174352773E-1
4.326063651E0,-2.499900013E-2,-1.222650036E-1,2.685699984E-2,1.276517903E-1
4.331074803E0,-5.241999868E-3,-1.192289963E-1,9.502000175E-3,1.197218449E-1
4.336086111E0,1.389000006E-2,-1.028800011E-1,-2.598699927E-2,1.070165915E-1
4.341097194E0,4.581000190E-3,-1.108239964E-1,-4.673900083E-2,1.203639395E-1
4.346108346E0,1.164999977E-2,-1.097759977E-1,-7.650599629E-2,1.343118001E-1
4.351119653E0,9.208999574E-3,-1.185970008E-1,-9.879299998E-2,1.546289466E-1
4.356130824E0,-1.209999973E-4,-1.300330013E-1,-1.304149926E-1,1.841647804E-1
4.361142130E0,-6.978000049E-3,-1.201670021E-1,-1.354749948E-1,1.812243777E-1
4.366153209E0,-2.761900052E-2,-1.199719980E-1,-1.451900005E-1,1.903581513E-1
4.371164380E0,-2.685699984E-2,-1.054619998E-1,-1.357270032E-1,1.739693974E-1
4.376175459E0,-2.149000019E-2,-6.500600278E-2,-1.187210009E-1,1.370484460E-1
4.381186740E0,-1.858399995E-2,-5.326199904E-2,-1.065059975E-1,1.205227493E-1
4.386197896E0,-2.491999976E-2,-6.051300094E-2,-9.920600057E-2,1.188472138E-1
4.391209211E0,-1.938400045E-2,-5.583599955E-2,-9.666299820E-2,1.133010748E-1
4.396220367E0,-1.860699989E-2,-6.760799885E-2,-9.202300012E-2,1.156948335E-1
4.401231444E0,-1.089399960E-2,-7.426699996E-2,-8.293999732E-2,1.118629057E-1
4.406242754E0,-1.150000026E-3,-6.887099892E-2,-7.396700233E-2,1.010725206E-1
4.411253833E0,-9.609999834E-4,-6.323000044E-2,-5.566500127E-2,8.424695153E-2
4.416264995E0,-5.491999909E-3,-5.488700047E-2,-3.048600070E-2,6.302492461E-2
4.421276074E0,-2.982999897E-3,-4.874699935E-2,-1.747200079E-2,5.186944231E-2
4.426287457E0,-9.854000062E-3,-4.938599840E-2,7.122000214E-3,5.086060403E-2
4.431298483E0,-1.655700058E-2,-6.162799895E-2,1.461599953E-2,6.546580760E-2
4.436309865E0,-2.998599969E-2,-6.177999824E-2,2.440799959E-2,7.288126511E-2
4.441320953E0,-1.986300014E-2,-6.397099793E-2,4.579199851E-2,8.114021492E-2
4.446332107E0,-1.467199996E-2,-6.639699638E-2,3.390200064E-2,7.598140798E-2
4.451343413E0,-1.192400046E-2,-5.940800160E-2,3.652099892E-2,7.074797385E-2
4.456354584E0,-1.153100003E-2,-5.741899833E-2,2.739400044E-2,6.465552251E-2
4.461365661E0,-2.264899947E-2,-6.052299961E-2,9.026999585E-3,6.524950100E-2
4.466376980E0,-3.104100004E-2,-6.867899746E-2,-1.145000011E-2,7.623287268E-2
4.471388059E0,-4.597299919E-2,-8.877699822E-2,-3.190900013E-2,1.049431101E-1
4.476399211E0,-6.966499984E-2,-1.208100021E-1,-6.431499869E-2,1.535730701E-1
4.481410290E0,-4.873500019E-2,-1.222079992E-1,-9.151600301E-2,1.602656361E-1
4.486421596E0,-4.006100073E-2,-1.285780072E-1,-1.065839976E-1,1.717478858E-1
4.491432757E0,-4.107699916E-2,-1.019029990E-1,-1.140289977E-1,1.583482030E-1
4.496443834E0,-1.888200082E-2,-8.274000138E-2,-1.116169989E-1,1.402169470E-1
4.501455139E0,-1.934999949E-3,-7.715400308E-2,-5.257400125E-2,9.338367108E-2
4.506466295E0,2.143000066E-2,-8.769799769E-2,-1.093799993E-2,9.093857031E-2
4.511477601E0,2.328499965E-2,-8.886399865E-2,-5.003999919E-3,9.200022544E-2
4.516488670E0,1.822499931E-2,-1.022109985E-1,-1.319800038E-2,1.046586166E-1
4.521499822E0,1.788499951E-2,-9.010999650E-2,-3.728200123E-2,9.914450208E-2
4.526510911E0,6.043999922E-3,-7.465600222E-2,-1.053889990E-1,1.292938116E-1
4.531522216E0,-1.238800026E-2,-6.746900082E-2,-1.652060002E-1,1.788813884E-1
4.536533372E0,-9.438999929E-3,-5.607400090E-2,-2.005299926E-1,2.084362402E-1
4.541544683E0,-8.981999941E-3,-3.794400021E-2,-2.210579962E-1,2.244706242E-1
4.546555762E0,7.329999935E-4,-4.093400016E-2,-2.109079957E-1,2.148448564E-1
4.551566914E0,7.718999870E-3,-4.547199979E-2,-1.752920002E-1,1.812582993E-1
4.556577993E0,2.373700030E-2,-4.461799935E-2,-1.379140019E-1,1.468825483E-1
4.561589312E0,1.595799997E-2,-4.334099963E-2,-1.129140034E-1,1.219945580E-1
4.566600468E0,1.075999998E-2,-4.180400074E-2,-9.533800185E-2,1.046550843E-1
4.571611774E0,-1.214000047E-3,-5.641800165E-2,-6.397700310E-2,8.530839133E-2
4.576622868E0,-1.513000019E-2,-7.323200256E-2,-6.388700008E-2,9.835340301E-2
4.581634020E0,-9.979000315E-3,-8.958400041E-2,-4.511800036E-2,1.007993429E-1
4.586645312E0,1.904999954E-3,-1.103909984E-1,-3.866700083E-2,1.169826419E-1
4.591656391E0,6.409999914E-3,-1.142039970E-1,-1.811400056E-2,1.158091449E-1
4.596667543E0,2.228100039E-2,-1.154699996E-1,-1.409999968E-4,1.176001006E-1
4.601678851E0,4.461999983E-2,-1.096670032E-1,8.325000294E-3,1.186890964E-1
4.606689930E0,6.622300297E-2,-1.014600024E-1,2.152499929E-2,1.230566690E-1
4.611701068E0,7.551500201E-2,-9.338100255E-2,2.765499987E-2,1.232368702E-1
4.616712375E0,7.288199663E-2,-8.321999758E-2,1.495099999E-2,1.116283379E-1
4.621723444E0,7.946299762E-2,-6.842499971E-2,2.630900033E-2,1.081134223E-1
4.626734596E0,6.490500271E-2,-4.929199815E-2,1.899000071E-2,8.368381316E-2
4.631745675E0,4.851400107E-2,-5.174899846E-2,1.176000014E-2,7.190177150E-2
4.636756981E0,3.497999907E-2,-3.564500064E-2,-4.439000040E-3,5.013851939E-2
4.641768137E0,1.951700076E-2,-4.832199961E-2,-2.533200011E-2,5.794513952E-2
4.646779427E0,4.627999850E-3,-5.172000080E-2,-4.829600081E-2,7.091460047E-2
4.651790506E0,4.048999865E-3,-5.993200094E-2,-6.405500323E-2,8.781390877E-2
4.656801884E0,1.044199988E-2,-4.454899952E-2,-7.231400162E-2,8.557431595E-2
4.661812963E0,9.765000083E-3,-3.655000031E-2,-8.036299795E-2,8.882268398E-2
4.666824117E0,1.143399999E-2,-3.337699920E-2,-9.076800197E-2,9.738372869E-2
4.671835204E0,8.457000367E-3,-3.252699971E-2,-9.405300021E-2,9.987739191E-2
4.676846509E0,7.980999537E-3,-3.172500059E-2,-1.020699963E-1,1.071842160E-1
4.681857588E0,7.567999884E-3,-3.797600046E-2,-1.030300036E-1,1.100664930E-1
4.686868740E0,1.648500003E-2,-3.680400178E-2,-9.706699848E-2,1.051108556E-1
4.691880048E0,1.822800003E-2,-3.359999880E-2,-1.194600016E-1,1.254269185E-1
4.696891214E0,8.423999883E-3,-4.240199924E-2,-1.369999945E-1,1.436589427E-1
4.701902291E0,3.652000101E-3,-5.326699838E-2,-1.357100010E-1,1.458352310E-1
4.706913605E0,1.063099969E-2,-6.147100031E-2,-1.347009987E-1,1.484454818E-1
4.711924761E0,5.824000109E-3,-5.508000031E-2,-1.219519973E-1,1.339403414E-1
4.716936067E0,5.795999896E-3,-5.328999832E-2,-1.165670007E-1,1.283015323E-1
4.721947146E0,8.128000423E-3,-5.603500083E-2,-1.090399995E-1,1.228645889E-1
4.726958223E0,1.171999960E-3,-7.284700125E-2,-1.161459982E-1,1.371056238E-1
4.731969375E0,1.477999962E-3,-7.984499633E-2,-1.163090020E-1,1.410857607E-1
4.736980677E0,-9.813000448E-3,-1.005930007E-1,-1.074849963E-1,1.475407442E-1
4.741991756E0,2.390000038E-3,-1.019209996E-1,-9.896100312E-2,1.420805490E-1
4.747003139E0,2.108499967E-2,-1.076060012E-1,-7.893799990E-2,1.351104605E-1
4.752014305E0,3.454599902E-2,-1.204079986E-1,-9.010799974E-2,1.543080159E-1
4.757025382E0,3.351100162E-2,-1.305709928E-1,-8.478099853E-2,1.592469438E-1
4.762036658E0,3.018400073E-2,-1.311469972E-1,-8.185300231E-2,1.575135638E-1
4.767047814E0,1.983599924E-2,-1.388009936E-1,-8.380199969E-2,1.633461289E-1
4.772058877E0,2.828099951E-2,-1.417060047E-1,-8.573299646E-2,1.680195030E-1
4.777070183E0,2.703800052E-2,-1.162559986E-1,-8.252699673E-2,1.451110467E-1
4.782081266E0,3.736300021E-2,-9.585399926E-2,-6.950899959E-2,1.241591075E-1
4.787092418E0,2.190900035E-2,-7.340800017E-2,-5.611500144E-2,9.496121404E-2
4.792103725E0,2.554599941E-2,-3.502500057E-2,-6.345199794E-2,7.684728227E-2
4.797114876E0,4.081900045E-2,-2.001000103E-3,-6.066700071E-2,7.314834089E-2
4.802126182E0,4.178300127E-2,2.556199953E-2,-7.635299861E-2,9.071392072E-2
4.807137276E0,4.278200120E-2,5.028399825E-2,-7.484000176E-2,9.979882750E-2
4.812148428E0,5.555599928E-2,6.750400364E-2,-7.540799677E-2,1.154539975E-1
4.817159507E0,5.654300004E-2,7.270400226E-2,-6.872999668E-2,1.149208216E-1
4.822170822E0,4.607399926E-2,6.120999902E-2,-7.165300101E-2,1.048981885E-1
4.827181978E0,3.599800169E-2,9.778000414E-3,-7.050599903E-2,7.976566503E-2
4.832193055E0,3.794800118E-2,-2.685900033E-2,-7.936000079E-2,9.197535766E-2
4.837204361E0,4.686800018E-2,-5.837199837E-2,-8.617000282E-2,1.141453855E-1
4.842215517E0,5.545800179E-2,-1.081160009E-1,-7.476300001E-2,1.426680265E-1
4.847226837E0,5.918300152E-2,-1.308010072E-1,-4.495000094E-2,1.504394686E-1
4.852237992E0,4.197800159E-2,-1.300520003E-1,-7.682699710E-2,1.567739228E-1
4.857249069E0,2.068500035E-2,-1.081010029E-1,-7.961799949E-2,1.358407962E-1
4.862260388E0,2.789600007E-2,-8.155900240E-2,-7.026399672E-2,1.112074050E-1
4.867271544E0,2.570600063E-2,-5.752300099E-2,-5.600300059E-2,8.429727270E-2
4.872282598E0,7.395000197E-3,-6.145999953E-2,-1.612400077E-2,6.396874996E-2
4.877293904E0,1.171999960E-3,-5.333700031E-2,9.309999645E-3,5.415611950E-2
4.882304982E0,6.583000068E-3,-4.120200127E-2,-1.954000071E-2,4.607333748E-2
4.887316144E0,7.174999919E-3,-3.701899946E-2,-5.958800018E-2,7.051678318E-2
4.892327452E0,7.792000193E-3,-4.223899916E-2,-5.433699861E-2,6.926296077E-2
4.897338608E0,6.058999803E-3,-7.347399741E-2,-6.374700367E-2,9.746189128E-2
4.902349670E0,-2.562999912E-2,-1.141169965E-1,-1.019729972E-1,1.551711246E-1
4.907360976E0,-5.173899978E-2,-1.380389929E-1,-1.377329975E-1,2.017475310E-1
4.912372045E0,-7.470799983E-2,-1.549459994E-1,-1.804669946E-1,2.493148293E-1
4.917383197E0,-8.551199734E-2,-1.574320048E-1,-2.041089982E-1,2.715835433E-1
4.922394505E0,-7.981900126E-2,-1.527390033E-1,-2.181899995E-1,2.780416371E-1
4.927405665E0,-6.987600029E-2,-1.471659988E-1,-1.781380028E-1,2.413993261E-1
4.932416742E0,-4.647000134E-2,-1.474660039E-1,-1.107179970E-1,1.901687624E-1
4.937428048E0,-2.164800093E-2,-1.304039955E-1,-6.071000174E-2,1.454631991E-1
4.942439203E0,-6.920000073E-3,-1.105450019E-1,-1.352399960E-2,1.115839702E-1
4.947450509E0,7.395999972E-3,-7.888799906E-2,1.466399990E-2,8.057946453E-2
4.952461579E0,2.788000042E-3,-6.201900169E-2,1.218700036E-2,6.326651953E-2
4.957472731E0,1.235099975E-2,-4.539300129E-2,1.951099932E-2,5.092888037E-2
4.962484053E0,1.016500033E-2,-5.292300135E-2,7.930999622E-3,5.447083677E-2
4.967495132E0,1.040000003E-2,-4.163800180E-2,6.250999868E-3,4.337001492E-2
4.972506307E0,2.463199943E-2,-4.008100182E-2,9.491000324E-3,4.799272018E-2
4.977517615E0,3.611499816E-2,-2.946699969E-2,-1.137000043E-3,4.662499257E-2
4.982528771E0,5.193899944E-2,-2.414700016E-2,-1.368200034E-2,5.888917060E-2
4.987539857E0,6.962600350E-2,-3.120099939E-2,-3.542299941E-2,8.411938905E-2
4.992551163E0,5.655999854E-2,-5.287799984E-2,-6.406000257E-2,1.004927870E-1
4.997562318E0,6.014600024E-2,-5.806899816E-2,-8.047799766E-2,1.160442071E-1
5.002573624E0,4.731899872E-2,-7.525099814E-2,-9.445799887E-2,1.297078020E-1
5.007584703E0,4.873000085E-2,-8.984500170E-2,-9.667000175E-2,1.406834267E-1
5.012595845E0,4.081999883E-2,-9.937500209E-2,-9.196700156E-2,1.414199163E-1
5.017606924E0,2.150500007E-2,-9.468699992E-2,-9.426999837E-2,1.353326479E-1
5.022618230E0,1.671399921E-2,-9.727200121E-2,-1.084399968E-1,1.466302592E-1
5.027629377E0,4.379999882E-4,-1.069839969E-1,-1.130599976E-1,1.556545229E-1
5.032640683E0,-2.230099961E-2,-1.093859971E-1,-1.081999987E-1,1.554666223E-1
5.037651829E0,-3.270100057E-2,-1.093780026E-1,-1.105140001E-1,1.588906766E-1
5.042662906E0,-4.751500115E-2,-1.045269966E-1,-1.080780029E-1,1.576845683E-1
5.047674193E0,-3.404900059E-2,-1.065300032E-1,-9.162800014E-2,1.445810031E-1
5.052685272E0,-2.100099996E-2,-1.083410010E-1,-8.017700166E-2,1.364080866E-1
5.057696413E0,-2.229600027E-2,-9.801899642E-2,-6.171299890E-2,1.179547774E-1
5.062707721E0,-2.130099945E-2,-8.986199647E-2,-3.869200125E-2,1.001298255E-1
5.067718901E0,-8.758000098E-3,-7.460799813E-2,-2.758000046E-2,8.002319899E-2
5.072729978E0,-3.539999947E-3,-5.699200183E-2,-1.405400038E-2,5.880590786E-2
5.077741260E0,-7.600000245E-4,-6.307400018E-2,-5.541000050E-3,6.332147961E-2
5.082752415E0,-5.061999895E-3,-5.511099845E-2,-2.064500004E-2,5.906828269E-2
5.087763721E0,-9.119999595E-3,-6.108700112E-2,-2.530000056E-4,6.176455381E-2
5.092774805E0,-1.068099961E-2,-6.001200154E-2,-1.323099993E-2,6.237454161E-2
5.097785957E0,-5.307999905E-3,-7.075399905E-2,-1.440200023E-2,7.239972967E-2
5.102797265E0,-9.308000095E-3,-9.086500108E-2,-2.533200011E-2,9.478817182E-2
5.107808421E0,-1.781100035E-2,-1.152810007E-1,-1.996899955E-2,1.183456877E-1
5.112819497E0,-2.142900042E-2,-1.347389966E-1,-2.912599966E-2,1.395067136E-1
5.117830560E0,-2.501299977E-2,-1.468230039E-1,-2.650699951E-2,1.512787680E-1
5.122841943E0,-2.846300043E-2,-1.496569961E-1,-4.749200121E-2,1.595708277E-1
5.127853251E0,-2.497399971E-2,-1.362120062E-1,-6.084600091E-2,1.512601968E-1
5.132864330E0,-2.633699961E-2,-1.253030002E-1,-5.013500154E-2,1.375063555E-1
5.137875484E0,-1.606299914E-2,-1.053920016E-1,-6.281299889E-2,1.237374914E-1
5.142886564E0,-2.236600034E-2,-7.185500115E-2,-6.997600198E-2,1.027619580E-1
5.147897870E0,-3.544000164E-2,-5.561099946E-2,-8.615499735E-2,1.084954402E-1
5.152909026E0,-2.947499976E-2,-3.752300143E-2,-9.701299667E-2,1.081123155E-1
5.157920103E0,-3.288299963E-2,-3.804299980E-2,-5.813499913E-2,7.686507414E-2
5.162931395E0,-1.289100014E-2,-3.111599945E-2,-2.433699928E-2,4.155325306E-2
5.167942551E0,6.537999958E-3,-3.150000051E-2,-2.394299954E-2,4.010315078E-2
5.172953627E0,-4.590000026E-3,-3.010099940E-2,-5.402399972E-2,6.201395658E-2
5.177964909E0,-5.969000049E-3,-3.647200018E-2,-9.547899663E-2,1.023820031E-1
5.182976294E0,-3.043299913E-2,-3.845499828E-2,-1.269180030E-1,1.360629774E-1
5.187987373E0,-4.023699835E-2,-5.529399961E-2,-1.865620017E-1,1.987003344E-1
5.192998744E0,-3.356499970E-2,-7.870499790E-2,-1.822080016E-1,2.012978931E-1
5.198009823E0,-3.184099868E-2,-9.692300111E-2,-1.854439974E-1,2.116539475E-1
5.203020987E0,-2.329000086E-2,-1.144599989E-1,-1.702280045E-1,2.064487563E-1
5.208032064E0,-1.507399976E-2,-1.146669984E-1,-1.388529986E-1,1.807094386E-1
5.213043370E0,-7.267000154E-3,-1.096469983E-1,-1.103300005E-1,1.557176373E-1
5.218054540E0,-1.132200006E-2,-1.021350026E-1,-9.386400133E-2,1.391768558E-1
5.223065617E0,-5.956999958E-3,-1.114000008E-1,-9.891700000E-2,1.490973471E-1
5.228076999E0,-1.469700038E-2,-1.038499996E-1,-8.487299830E-2,1.349231266E-1
5.233088093E0,-6.885000039E-3,-8.961399645E-2,-1.014650017E-1,1.355478445E-1
5.238099399E0,5.357999820E-3,-7.569400221E-2,-1.010169983E-1,1.263436745E-1
5.243110492E0,1.270100009E-2,-7.362999767E-2,-8.632600307E-2,1.141703585E-1
5.248121644E0,2.895200066E-2,-6.668599695E-2,-6.937500089E-2,1.004894586E-1
5.253132951E0,5.160399899E-2,-5.734699965E-2,-5.008000135E-2,9.197639706E-2
5.258144040E0,5.497999862E-2,-3.170400113E-2,-4.710400105E-2,7.903626288E-2
5.263155192E0,7.904999703E-2,-1.615799963E-2,-5.801900104E-2,9.937900917E-2
5.268166504E0,8.375900239E-2,-5.297000054E-3,-3.793599829E-2,9.210194708E-2
5.273177660E0,7.207100093E-2,2.984999912E-3,-3.679199889E-2,8.097401177E-2
5.278188737E0,6.312099844E-2,9.065999649E-3,-1.906399988E-2,6.655741045E-2
5.283200071E0,4.748300090E-2,9.110000101E-4,-2.057000063E-2,5.175509851E-2
5.288211227E0,3.476100042E-2,-1.154099964E-2,-5.774999969E-3,3.707927248E-2
5.293222533E0,1.792499982E-2,-3.556799889E-2,-3.290999914E-3,3.996522043E-2
5.298233622E0,-1.684400067E-2,-5.882799998E-2,2.004300058E-2,6.439080534E-2
5.303244774E0,-1.799399965E-2,-8.203999698E-2,5.051999819E-3,8.414195048E-2
5.308256081E0,-2.368799970E-2,-1.148739979E-1,-2.662399970E-2,1.202746610E-1
5.313267169E0,-2.910299972E-2,-1.476320028E-1,-5.596499890E-2,1.605436824E-1
5.318278321E0,5.940299854E-2,-2.242899984E-1,-6.494089961E-1,6.896134887E-1
5.323289624E0,8.555199951E-2,-2.068870068E-1,-5.376489758E-1,5.823983168E-1
5.328300780E0,-8.244500309E-2,-2.536799908E-1,-4.774000030E-3,2.667836339E-1
5.333311857E0,-4.665200040E-2,-2.210469991E-1,8.245699853E-2,2.404939533E-1
5.338323162E0,-1.228800043E-2,-1.665669978E-1,3.526600078E-2,1.707022276E-1
5.343334318E0,-3.966199979E-2,-9.279900044E-2,-1.206899993E-2,1.016385236E-1
5.348345624E0,-2.227300033E-2,-4.009800032E-2,-7.429999858E-2,8.731795899E-2
5.353356708E0,-3.570000082E-2,-2.624399960E-2,-9.049700201E-2,1.007618229E-1
5.358367860E0,-5.354499817E-2,-2.357199974E-2,-3.804700077E-2,6.978739333E-2
5.363379177E0,-7.572600245E-2,-1.057000016E-3,3.527500108E-2,8.354561866E-2
5.368390333E0,-6.032299995E-2,2.413200028E-2,1.010999978E-1,1.201766504E-1
5.373401414E0,1.026799995E-2,4.864399880E-2,1.124169976E-1,1.229196965E-1
5.378412720E0,6.956999749E-2,4.859599844E-2,1.003179997E-1,1.313973237E-1
5.383423896E0,1.017989963E-1,4.784300178E-2,7.451300323E-2,1.349228525E-1
5.388435202E0,1.541839987E-1,6.046399847E-2,4.002200067E-2,1.703829836E-1
5.393446280E0,1.935179979E-1,6.336899847E-2,4.629199952E-2,2.088247942E-1
5.398457431E0,2.273489982E-1,4.881999921E-3,4.932200164E-2,2.326887637E-1
5.403468739E0,1.675789952E-1,-1.429159939E-1,5.419999827E-3,2.203113192E-1
5.408479818E0,3.794300184E-2,-2.124599963E-1,-1.284579933E-1,2.511580727E-1
5.413490970E0,-4.365300015E-2,-1.900060028E-1,-2.154169977E-1,2.905380326E-1
5.418502278E0,-2.510000020E-3,-1.442590058E-1,-2.276639938E-1,2.695326602E-1
